Order,Dataset,Variable,Label,Data Type,Length,Significant Digits,Format,KeySequence,Mandatory,CodeList,Valuelist,Origin,Pages,Method,Predecessor,Role,Comment
1,AE,STUDYID,Study Identifier,text,7,,,1,Yes,,,Protocol,,,,,
2,AE,DOMAIN,Domain Abbreviation,text,2,,,,Yes,CL.AE.DOMAIN,,Assigned,,,,,
3,AE,USUBJID,Unique Subject Identifier,text,14,,,2,Yes,,,Derived,,MT.USUBJID,,,
4,AE,AESEQ,Sequence Number,integer,1,,,,Yes,,,Derived,,MT.SEQ,,,
5,AE,AESPID,Sponsor-Defined Identifier,text,4,,,,No,,,CRF,21,,,,
6,AE,AETERM,Reported Term for the Adverse Event,text,25,,,,Yes,,,CRF,21,,,,
7,AE,AEMODIFY,Modified Reported Term,text,9,,,,No,,,Assigned,,,,,
8,AE,AEDECOD,Dictionary-Derived Term,text,18,,,3,Yes,CL.AEDICT_F,,Assigned,,,,,
9,AE,AEBODSYS,Body System or Organ Class,text,52,,,,No,CL.AEDICT_F,,Assigned,,,,,
10,AE,AESEV,Severity/Intensity,text,8,,,,Yes,CL.AESEV,,CRF,21,,,,
11,AE,AESER,Serious Event,text,1,,,,Yes,CL.NY,,CRF,21,,,,
12,AE,AEACN,Action Taken with Study Treatment,text,30,,,,Yes,CL.ACN,,CRF,21,,,,
13,AE,AEREL,Causality,text,16,,,,Yes,CL.AEREL,,CRF,21,,,,
14,AE,AESTDTC,Start Date/Time of Adverse Event,date,,,,4,No,,,CRF,21,,,,
15,AE,AEENDTC,End Date/Time of Adverse Event,date,,,,,No,,,CRF,21,,,,
16,AE,AESTDY,Study Day of Start of Adverse Event,integer,3,,,,No,,,Derived,,MT.AESTDY,,,
17,AE,AEENDY,Study Day of End of Adverse Event,integer,3,,,,No,,,Derived,,MT.AEENDY,,,
18,AE,AEENRF,End Relative to Reference Period,text,5,,,,No,CL.AEENRF,,CRF,21,,,,
1,CM,STUDYID,Study Identifier,text,7,,,,Yes,,,Protocol,,,,,
2,CM,DOMAIN,Domain Abbreviation,text,2,,,,Yes,CL.CM.DOMAIN,,Assigned,,,,,
3,CM,USUBJID,Unique Subject Identifier,text,14,,,,Yes,,,Derived,,MT.USUBJID,,,
4,CM,CMSEQ,Sequence Number,integer,2,,,,Yes,,,Derived,,MT.SEQ,,,
5,CM,CMTRT,"Reported Name of Drug, Med, or Therapy",text,23,,,,Yes,,,CRF,9 22,,,,
6,CM,CMMODIFY,Modified Reported Name,text,23,,,,No,,,Assigned,,,,,
7,CM,CMDECOD,Standardized Medication Name,text,30,,,,No,CL.DRUGDICT_F,,Assigned,,,,,
8,CM,CMCAT,Category for Medication,text,36,,,,No,CL.CMCAT,,CRF,9 22,,,,
9,CM,CMINDC,Indication,text,27,,,,No,,,CRF,9 22,,,,
10,CM,CMCLAS,Medication Class,text,45,,,,No,CL.DRUGDICT_F,,Assigned,,,,,COM.CMCLAS
11,CM,CMCLASCD,Medication Class Code,text,3,,,,No,CL.DRUGDICT_F,,Assigned,,,,,COM.CMCLASCD
12,CM,CMDOSTXT,Dose Description,text,4,,,,No,,,CRF,9 22,,,,
13,CM,CMDOSU,Dose Units,text,6,,,,No,CL.CMUNIT,,CRF,9 22,,,,
14,CM,CMDOSFRQ,Dosing Frequency per Interval,text,5,,,,No,CL.FREQ,,CRF,22,,,,
15,CM,CMROUTE,Route of Administration,text,12,,,,No,CL.ROUTE,,CRF,22,,,,COM.CMROUTE
16,CM,CMSTDTC,Start Date/Time of Medication,date,,,,,No,,,CRF,9 22,,,,
17,CM,CMENDTC,End Date/Time of Medication,date,,,,,No,,,CRF,9 22,,,,
18,CM,CMSTDY,Study Day of Start of Medication,integer,6,,,,No,,,Derived,,MT.CMSTDY,,,
19,CM,CMENDY,Study Day of End of Medication,integer,4,,,,No,,,Derived,,MT.CMENDY,,,
20,CM,CMENRF,End Relative to Reference Period,text,6,,,,No,CL.CMENRF,,CRF,22,,,,
1,DA,STUDYID,Study Identifier,text,7,,,,Yes,,,Protocol,,,,,
2,DA,DOMAIN,Domain Abbreviation,text,2,,,,Yes,CL.DA.DOMAIN,,Assigned,,,,,
3,DA,USUBJID,Unique Subject Identifier,text,14,,,,Yes,,,Derived,,MT.USUBJID,,,
4,DA,DASEQ,Sequence Number,integer,1,,,,Yes,,,Derived,,MT.SEQ,,,
5,DA,DATESTCD,Short Name of Accountability Assessment,text,7,,,,Yes,CL.DATESTCD,,Assigned,,,,,
6,DA,DATEST,Name of Accountability Assessment,text,25,,,,Yes,CL.DATEST,,CRF,19,,,,
7,DA,DAORRES,Assessment Result in Original Units,text,2,,,,No,,,CRF,19,,,,
8,DA,DAORRESU,Original Units,text,7,,,,No,,,CRF,19,,,,
9,DA,DASTRESC,Assessment Result in Std Format,text,2,,,,No,,,Derived,,MT.DASTRESC,,,
10,DA,DASTRESN,Numeric Result/Finding in Standard Units,integer,2,,,,No,,,Derived,,MT.DASTRESN,,,
11,DA,DASTRESU,Assessment Standard Units,text,7,,,,No,,,Derived,,MT.DASTRESU,,,
12,DA,VISITNUM,Visit Number,integer,2,,,,No,,,Derived,,MT.DA.VISITNUM,,,
13,DA,VISIT,Visit Name,text,8,,,,No,,,Assigned,,,,,
14,DA,VISITDY,Planned Study Day of Visit,integer,3,,,,No,,,Protocol,,,,,
15,DA,DADTC,Date/Time of Accountability Assessment,date,,,,,No,,,CRF,19,,,,
16,DA,DADY,Study Day of Accountability Assessment,integer,3,,,,No,,,Derived,,MT.DADY,,,
1,DM,STUDYID,Study Identifier,text,7,,,,Yes,,,Protocol,,,,,
2,DM,DOMAIN,Domain Abbreviation,text,2,,,,Yes,CL.DM.DOMAIN,,Assigned,,,,,
3,DM,USUBJID,Unique Subject Identifier,text,14,,,,Yes,,,Derived,,MT.USUBJID,,,
4,DM,SUBJID,Subject Identifier for the Study,text,6,,,,Yes,,,CRF,3,,,,
5,DM,RFSTDTC,Subject Reference Start Date/Time,date,,,,,No,,,Derived,,MT.RFSTDTC,,,
6,DM,RFENDTC,Subject Reference End Date/Time,date,,,,,No,,,Derived,,MT.RFENDTC,,,
7,DM,SITEID,Study Site Identifier,text,3,,,,Yes,,,CRF,3,,,,
8,DM,BRTHDTC,Date/Time of Birth,date,,,,,No,,,CRF,6,,,,
9,DM,AGE,Age,integer,2,,,,Yes,,,Derived,,MT.AGE,,,
10,DM,AGEU,Age Units,text,5,,,,No,,,Assigned,,,,,COM.AGEU
11,DM,SEX,Sex,text,1,,,,Yes,CL.SEX,,CRF,6,,,,
12,DM,RACE,Race,text,40,,,,No,CL.RACE,,CRF,6,,,,
13,DM,ETHNIC,Ethnicity,text,22,,,,Yes,CL.ETHNIC,,CRF,6,,,,
14,DM,ARMCD,Planned Arm Code,text,8,,,,Yes,CL.ARMCD,,Assigned,,,,,COM.ARMCD
15,DM,ARM,Description of Planned Arm,text,20,,,,Yes,CL.ARM,,Assigned,,,,,COM.ARM
16,DM,COUNTRY,Country,text,3,,,,Yes,CL.ISO3166,,Assigned,,,,,
1,DS,STUDYID,Study Identifier,text,7,,,,Yes,,,Protocol,,,,,
2,DS,DOMAIN,Domain Abbreviation,text,2,,,,Yes,CL.DS.DOMAIN,,Assigned,,,,,
3,DS,USUBJID,Unique Subject Identifier,text,14,,,,Yes,,,Derived,,MT.USUBJID,,,
4,DS,DSSEQ,Sequence Number,integer,1,,,,Yes,,,Derived,,MT.SEQ,,,
5,DS,DSTERM,Reported Term for the Disposition Event,text,34,,,,Yes,CL.TREASFF,,CRF,6 16 18,,,,
6,DS,DSDECOD,Standardized Disposition Term,text,21,,,,Yes,CL.NCOMPLT,,CRF,6 16 18,,,,COM.DSDECOD
7,DS,DSCAT,Category for Disposition Event,text,18,,,,No,CL.DSCAT,,Assigned,,,,,
8,DS,EPOCH,Epoch,text,9,,,,No,CL.EPOCH,,Assigned,,,,,
9,DS,DSSTDTC,Start Date/Time of Disposition Event,date,,,,,No,,,CRF,6 16 18,,,,
10,DS,DSSTDY,Study Day of Start of Disposition Event,integer,3,,,,No,,,Derived,,MT.DSSTDY,,,
1,EG,STUDYID,Study Identifier,text,7,,,,Yes,,,Protocol,,,,,
2,EG,DOMAIN,Domain Abbreviation,text,2,,,,Yes,CL.EG.DOMAIN,,Assigned,,,,,
3,EG,USUBJID,Unique Subject Identifier,text,14,,,,Yes,,,Derived,,MT.USUBJID,,,
4,EG,EGSEQ,Sequence Number,integer,2,,,,Yes,,,Derived,,MT.SEQ,,,
5,EG,EGSPID,Sponsor-Defined Identifier,text,6,,,,No,,,Assigned,,,,,COM.EGSPID
6,EG,EGTESTCD,ECG Test or Examination Short Name,text,6,,,,Yes,CL.EGTESTCD,,Assigned,,,,,
7,EG,EGTEST,ECG Test or Examination Name,text,40,,,,Yes,CL.EGTEST,,CRF,12,,,,
8,EG,EGPOS,ECG Position of Subject,text,6,,,,No,,,Protocol,,,,,COM.EGPOS
9,EG,EGORRES,Result or Finding in Original Units,text,15,,,,No,,,CRF,12,,,,
10,EG,EGORRESU,Original Units,text,4,,,,No,CL.EGRESU,,CRF,12,,,,
11,EG,EGSTRESC,Character Result/Finding in Std Format,text,15,,,,No,,,Derived,,MT.EGSTRESC,,,
12,EG,EGSTRESN,Numeric Result/Finding in Standard Units,float,5,,5.1,,No,,,Derived,,MT.EGSTRESN,,,
13,EG,EGSTRESU,Standard Units,text,9,,,,No,CL.EGRESU,,Assigned,,,,,
14,EG,EGBLFL,Baseline Flag,text,1,,,,No,CL.NY,,Derived,,MT.EGBLFL,,,
15,EG,EGDRVFL,Derived Flag,text,1,,,,No,CL.NY,,Derived,,MT.EGDRVFL,,,
16,EG,EGEVAL,Evaluator,text,12,,,,No,,,Assigned,,,,,COM.EGEVAL
17,EG,VISITNUM,Visit Number,integer,2,,,,No,,,Assigned,,,,,COM.EG.VISITNUM
18,EG,VISIT,Visit Name,text,7,,,,No,,,Assigned,,,,,
19,EG,VISITDY,Planned Study Day of Visit,integer,3,,,,No,,,Protocol,,,,,
20,EG,EGDTC,Date/Time of ECG,date,,,,,No,,,CRF,12,,,,
21,EG,EGDY,Study Day of ECG,integer,3,,,,No,,,Derived,,MT.EGDY,,,
1,EX,STUDYID,Study Identifier,text,7,,,,Yes,,,Protocol,,,,,
2,EX,DOMAIN,Domain Abbreviation,text,2,,,,Yes,CL.EX.DOMAIN,,Assigned,,,,,
3,EX,USUBJID,Unique Subject Identifier,text,14,,,,Yes,,,Derived,,MT.USUBJID,,,
4,EX,EXSEQ,Sequence Number,integer,1,,,,Yes,,,Derived,,MT.SEQ,,,
5,EX,EXTRT,Name of Actual Treatment,text,20,,,,Yes,CL.EXTRT,,Derived,,MT.EXTRT,,,
6,EX,EXDOSE,Dose per Administration,integer,2,,,,No,,,Derived,,MT.EXDOSE,,,
7,EX,EXDOSU,Dose Units,text,2,,,,No,,,Derived,,MT.EXDOSU,,,
8,EX,EXDOSFRM,Dose Form,text,7,,,,No,CL.FRM,,CRF,20,,,,
9,EX,EXSTDTC,Start Date/Time of Treatment,date,,,,,No,,,CRF,20,,,,
10,EX,EXENDTC,End Date/Time of Treatment,date,,,,,No,,,CRF,20,,,,
11,EX,EXSTDY,Study Day of Start of Treatment,integer,2,,,,No,,,Derived,,MT.EXSTDY,,,
12,EX,EXENDY,Study Day of End of Treatment,integer,2,,,,No,,,Derived,,MT.EXENDY,,,
1,IE,STUDYID,Study Identifier,text,7,,,,Yes,,,Protocol,,,,,
2,IE,DOMAIN,Domain Abbreviation,text,2,,,,Yes,CL.IE.DOMAIN,,Assigned,,,,,
3,IE,USUBJID,Unique Subject Identifier,text,14,,,,Yes,,,Derived,,MT.USUBJID,,,
4,IE,IESEQ,Sequence Number,integer,1,,,,Yes,,,Derived,,MT.SEQ,,,
5,IE,IETESTCD,Inclusion/Exclusion Criterion Short Name,text,6,,,,Yes,CL.IETESTCD,,Assigned,,,,,
6,IE,IETEST,Inclusion/Exclusion Criterion,text,54,,,,Yes,CL.IETEST,,CRF,4 5,,,,
7,IE,IECAT,Inclusion/Exclusion Category,text,9,,,,Yes,,,CRF,4 5,,,,
8,IE,IEORRES,I/E Criterion Original Result,text,1,,,,Yes,,,CRF,4 5,,,,
9,IE,IESTRESC,I/E Criterion Result in Std Format,text,1,,,,Yes,,,Derived,,MT.IESTRESC,,,
10,IE,VISITNUM,Visit Number,integer,1,,,,No,,,Assigned,,,,,COM.IE.VISITNUM
11,IE,VISIT,Visit Name,text,6,,,,No,,,Assigned,,,,,
12,IE,IEDTC,Date/Time of Collection,date,,,,,No,,,CRF,4 5,,,,
1,LB,STUDYID,Study Identifier,text,7,,,,Yes,,,Protocol,,,,,
2,LB,DOMAIN,Domain Abbreviation,text,2,,,,Yes,CL.LB.DOMAIN,,Assigned,,,,,
3,LB,USUBJID,Unique Subject Identifier,text,14,,,,Yes,,,Derived,,MT.USUBJID,,,
4,LB,LBSEQ,Sequence Number,integer,2,,,,Yes,,,Derived,,MT.SEQ,,,
5,LB,LBREFID,Specimen ID,text,7,,,,No,,,eDT,,,,,COM.LBREFID
6,LB,LBTESTCD,Lab Test or Examination Short Name,text,7,,,,Yes,CL.LBTESTCD,,Assigned,,,,,
7,LB,LBTEST,Lab Test or Examination Name,text,22,,,,Yes,CL.LBTEST,,eDT,,,,,
8,LB,LBCAT,Category for Lab Test,text,10,,,,No,,,eDT,,,,,
9,LB,LBORRES,Result or Finding in Original Units,text,8,,,,No,,,eDT,,,,,
10,LB,LBORRESU,Original Units,text,7,,,,No,CL.LBRESU,,eDT,,,,,
11,LB,LBORNRLO,Reference Range Lower Limit in Orig Unit,text,8,,,,No,,,eDT,,,,,
12,LB,LBORNRHI,Reference Range Upper Limit in Orig Unit,text,8,,,,No,,,eDT,,,,,
13,LB,LBSTRESC,Character Result/Finding in Std Format,text,8,,,,No,,,eDT,,,,,
14,LB,LBSTRESN,Numeric Result/Finding in Standard Units,float,5,,5.2,,No,,,eDT,,,,,
15,LB,LBSTRESU,Standard Units,text,7,,,,No,,,eDT,,,,,
16,LB,LBSTNRLO,Reference Range Lower Limit-Std Units,float,4,,4.2,,No,,,eDT,,,,,
17,LB,LBSTNRHI,Reference Range Upper Limit-Std Units,float,4,,4.2,,No,,,eDT,,,,,
18,LB,LBSTNRC,Reference Range for Char Rslt-Std Units,text,19,,,,No,,,eDT,,,,,
19,LB,LBNRIND,Reference Range Indicator,text,20,,,,No,CL.NRIND,,Derived,,MT.LBNRIND,,,
20,LB,LBSPEC,Specimen Type,text,5,,,,No,CL.SPECTYPE,,eDT,,,,,
21,LB,LBMETHOD,Method of Test or Examination,text,8,,,,No,CL.METHOD,,eDT,,,,,
22,LB,LBBLFL,Baseline Flag,text,1,,,,No,CL.NY,,Derived,,MT.LBBLFL,,,
23,LB,LBFAST,Fasting Status,text,1,,,,No,CL.NY,,eDT,,,,,
24,LB,VISITNUM,Visit Number,integer,2,,,,No,,,eDT,,,,,
25,LB,VISIT,Visit Name,text,7,,,,No,,,eDT,,,,,
26,LB,VISITDY,Planned Study Day of Visit,integer,3,,,,No,,,Protocol,,,,,
27,LB,LBDTC,Date/Time of Specimen Collection,datetime,,,,,No,,,eDT,,,,,
28,LB,LBDY,Study Day of Specimen Collection,integer,3,,,,No,,,Derived,,MT.LBDY,,,
1,MH,STUDYID,Study Identifier,text,7,,,,Yes,,,Protocol,,,,,
2,MH,DOMAIN,Domain Abbreviation,text,2,,,,Yes,CL.MH.DOMAIN,,Assigned,,,,,
3,MH,USUBJID,Unique Subject Identifier,text,14,,,,Yes,,,Derived,,MT.USUBJID,,,
4,MH,MHSEQ,Sequence Number,integer,1,,,,Yes,,,Derived,,MT.SEQ,,,
5,MH,MHTERM,Reported Term for the Medical History,text,169,,,,Yes,,,CRF,7 8,,,,
6,MH,MHCAT,Category for Medical History,text,28,,,,No,CL.MHCAT,,CRF,7 8,,,,
7,MH,MHPRESP,Medical History Event Pre-Specified,text,2,,,,No,CL.NY,,Assigned,,,,,
8,MH,MHOCCUR,Medical History Occurrence,text,2,,,,No,CL.NY,,Assigned,,,,,
9,MH,MHBODSYS,Body System or Organ Class,text,23,,,,No,CL.MHBODSYS,,Assigned,,,,,COM.MHBODSYS
10,MH,MHDTC,Date/Time of History Collection,date,,,,,No,,,CRF,7 8,,,,
11,MH,MHSTDTC,Start Date/Time of Medical History Event,date,,,,,No,,,CRF,7 8,,,,
12,MH,MHENRF,End Relative to Reference Period,text,30,,,,No,CL.MHENRF,,CRF,8,,,,COM.MHENRF
1,PE,STUDYID,Study Identifier,text,7,,,,Yes,,,Protocol,,,,,
2,PE,DOMAIN,Domain Abbreviation,text,2,,,,Yes,CL.PE.DOMAIN,,Assigned,,,,,
3,PE,USUBJID,Unique Subject Identifier,text,14,,,,Yes,,,Derived,,MT.USUBJID,,,
4,PE,PESEQ,Sequence Number,integer,2,,,,Yes,,,Derived,,MT.SEQ,,,
5,PE,PETESTCD,Body System Examined Short Name,text,4,,,,Yes,CL.PETESTCD,,Assigned,,,,,
6,PE,PETEST,Body System Examined,text,29,,,,Yes,CL.PETEST,,CRF,10,,,,
7,PE,PEORRES,Verbatim Examination Finding,text,36,,,,No,,,CRF,10,,,,
8,PE,PESTRESC,Character Result/Finding in Std Format,text,26,,,,No,,,Derived,,MT.PESTRESC,,,
9,PE,VISITNUM,Visit Number,integer,2,,,,No,,,Assigned,,,,,COM.PE.VISITNUM
10,PE,VISIT,Visit Name,text,7,,,,No,,,Assigned,,,,,
11,PE,VISITDY,Planned Study Day of Visit,integer,3,,,,No,,,Protocol,,,,,
12,PE,PEDTC,Date/Time of Examination,date,,,,,No,,,CRF,10,,,,
13,PE,PEDY,Study Day of Examination,integer,3,,,,No,,,Derived,,MT.PEDY,,,
1,QSCG,STUDYID,Study Identifier,text,7,,,,Yes,,,Protocol,,,,,
2,QSCG,DOMAIN,Domain Abbreviation,text,2,,,,Yes,CL.QS.DOMAIN,,Assigned,,,,,
3,QSCG,USUBJID,Unique Subject Identifier,text,14,,,,Yes,,,Derived,,MT.USUBJID,,,
4,QSCG,QSSEQ,Sequence Number,integer,3,,,,Yes,,,Derived,,MT.SEQ,,,
5,QSCG,QSTESTCD,Question Short Name,text,7,,,,Yes,CL.QSTESTCD,,Assigned,,,,,
6,QSCG,QSTEST,Question Name,text,37,,,,Yes,CL.QSTEST,,CRF,17,,,,
7,QSCG,QSCAT,Category of Question,text,50,,,,Yes,,,CRF,17,,,,
9,QSCG,QSORRES,Finding in Original Units,text,20,,,,No,,,CRF,17,,,,
10,QSCG,QSSTRESC,Character Result/Finding in Std Format,text,2,,,,No,,,Derived,,MT.QSSTRESC,,,
11,QSCG,QSSTRESN,Numeric Finding in Standard Units,integer,2,,,,No,,,Derived,,MT.QSSTRESN,,,
13,QSCG,VISITNUM,Visit Number,integer,2,,,,No,,,Assigned,,,,,COM.QS.VISITNUM
14,QSCG,VISIT,Visit Name,text,8,,,,No,,,Assigned,,,,,
15,QSCG,VISITDY,Planned Study Day of Visit,integer,3,,,,No,,,Protocol,,,,,
16,QSCG,QSDTC,Date/Time of Finding,date,,,,,No,,,CRF,17,,,,
17,QSCG,QSDY,Study Day of Finding,integer,3,,,,No,,,Derived,,MT.QSDY,,,
1,QSCS,STUDYID,Study Identifier,text,7,,,,Yes,,,Protocol,,,,,
2,QSCS,DOMAIN,Domain Abbreviation,text,2,,,,Yes,CL.QS.DOMAIN,,Assigned,,,,,
3,QSCS,USUBJID,Unique Subject Identifier,text,14,,,,Yes,,,Derived,,MT.USUBJID,,,
4,QSCS,QSSEQ,Sequence Number,integer,3,,,,Yes,,,Derived,,MT.SEQ,,,
5,QSCS,QSTESTCD,Question Short Name,text,7,,,,Yes,CL.QSTESTCD,,Assigned,,,,,
6,QSCS,QSTEST,Question Name,text,37,,,,Yes,CL.QSTEST,,CRF,17,,,,
7,QSCS,QSCAT,Category of Question,text,50,,,,Yes,,,CRF,17,,,,
8,QSCS,QSSCAT,Subcategory for Question,text,40,,,,No,,,CRF,14 15,,,,
9,QSCS,QSORRES,Finding in Original Units,text,20,,,,No,,,CRF,17,,,,
10,QSCS,QSSTRESC,Character Result/Finding in Std Format,text,2,,,,No,,,Derived,,MT.QSSTRESC,,,
11,QSCS,QSSTRESN,Numeric Finding in Standard Units,integer,2,,,,No,,,Derived,,MT.QSSTRESN,,,
12,QSCS,QSBLFL,Baseline Flag,text,1,,,,No,CL.NY,,Derived,,MT.QSBLFL,,,
13,QSCS,VISITNUM,Visit Number,integer,2,,,,No,,,Assigned,,,,,COM.QS.VISITNUM
14,QSCS,VISIT,Visit Name,text,8,,,,No,,,Assigned,,,,,
15,QSCS,VISITDY,Planned Study Day of Visit,integer,3,,,,No,,,Protocol,,,,,
16,QSCS,QSDTC,Date/Time of Finding,date,,,,,No,,,CRF,17,,,,
17,QSCS,QSDY,Study Day of Finding,integer,3,,,,No,,,Derived,,MT.QSDY,,,
18,QSCS,QSEVLINT,Evaluation Interval,text,20,,,,No,,,CRF,14,,,,
1,QSMM,STUDYID,Study Identifier,text,7,,,,Yes,,,Protocol,,,,,
2,QSMM,DOMAIN,Domain Abbreviation,text,2,,,,Yes,CL.QS.DOMAIN,,Assigned,,,,,
3,QSMM,USUBJID,Unique Subject Identifier,text,14,,,,Yes,,,Derived,,MT.USUBJID,,,
4,QSMM,QSSEQ,Sequence Number,integer,3,,,,Yes,,,Derived,,MT.SEQ,,,
5,QSMM,QSTESTCD,Question Short Name,text,7,,,,Yes,CL.QSTESTCD,,Assigned,,,,,
6,QSMM,QSTEST,Question Name,text,37,,,,Yes,CL.QSTEST,,CRF,17,,,,
7,QSMM,QSCAT,Category of Question,text,50,,,,Yes,,,CRF,17,,,,
9,QSMM,QSORRES,Finding in Original Units,text,20,,,,No,,,CRF,17,,,,
10,QSMM,QSSTRESC,Character Result/Finding in Std Format,text,2,,,,No,,,Derived,,MT.QSSTRESC,,,
11,QSMM,QSSTRESN,Numeric Finding in Standard Units,integer,2,,,,No,,,Derived,,MT.QSSTRESN,,,
12,QSMM,QSBLFL,Baseline Flag,text,1,,,,No,CL.NY,,Derived,,MT.QSBLFL,,,
13,QSMM,VISITNUM,Visit Number,integer,2,,,,No,,,Assigned,,,,,COM.QS.VISITNUM
14,QSMM,VISIT,Visit Name,text,8,,,,No,,,Assigned,,,,,
15,QSMM,VISITDY,Planned Study Day of Visit,integer,3,,,,No,,,Protocol,,,,,
16,QSMM,QSDTC,Date/Time of Finding,date,,,,,No,,,CRF,17,,,,
17,QSMM,QSDY,Study Day of Finding,integer,3,,,,No,,,Derived,,MT.QSDY,,,
1,RELREC,STUDYID,Study Identifier,text,7,,,,Yes,,,Protocol,,,,,
2,RELREC,RDOMAIN,Related Domain Abbreviation,text,2,,,,Yes,,,Derived,,MT.RDOMAIN,,,
3,RELREC,USUBJID,Unique Subject Identifier,text,14,,,,No,,,Derived,,MT.USUBJID,,,
4,RELREC,IDVAR,Identifying Variable,text,8,,,,Yes,,,Assigned,,,,,COM.IDVAR
5,RELREC,IDVARVAL,Identifying Variable Value,text,2,,,,No,,,Assigned,,,,,COM.IDVARVAL
6,RELREC,RELTYPE,Relationship Type,text,4,,,,No,,,Assigned,,,,,COM.RELTYPE
7,RELREC,RELID,Relationship Identifier,text,10,,,,Yes,,,Derived,,MT.RELID,,,
1,SC,STUDYID,Study Identifier,text,7,,,,Yes,,,Protocol,,,,,
2,SC,DOMAIN,Domain Abbreviation,text,2,,,,Yes,CL.SC.DOMAIN,,Assigned,,,,,
3,SC,USUBJID,Unique Subject Identifier,text,14,,,,Yes,,,Derived,,MT.USUBJID,,,
4,SC,SCSEQ,Sequence Number,integer,1,,,,Yes,,,Derived,,MT.SEQ,,,
5,SC,SCTESTCD,Subject Characteristic Short Name,text,8,,,,Yes,CL.SCTESTCD,,Assigned,,,,,
6,SC,SCTEST,Subject Characteristic,text,16,,,,Yes,CL.SCTEST,,CRF,6,,,,
7,SC,SCORRES,Result or Finding in Original Units,text,24,,,,No,,,CRF,3 6,,,,
8,SC,SCSTRESC,Character Result/Finding in Std Format,text,24,,,,No,,,Derived,,MT.SCSTRESC,,,
9,SC,SCDTC,Date/Time of Collection,date,,,,,No,,,CRF,6,,,,
10,SC,SCDY,Study Day of Examination,integer,3,,,,No,,,Derived,,MT.SCDY,,,
1,SE,STUDYID,Study Identifier,text,7,,,,Yes,,,Protocol,,,,,
2,SE,DOMAIN,Domain Abbreviation,text,2,,,,Yes,CL.SE.DOMAIN,,Assigned,,,,,
3,SE,USUBJID,Unique Subject Identifier,text,14,,,,Yes,,,Derived,,MT.USUBJID,,,
4,SE,SESEQ,Sequence Number,integer,1,,,,Yes,,,Derived,,MT.SEQ,,,
5,SE,ETCD,Element Code,text,7,,,,Yes,,,Assigned,,,,,
6,SE,ELEMENT,Description of Element,text,40,,,,No,,,Protocol,,,,,
7,SE,SESTDTC,Start Date/Time of Element,date,,,,,Yes,,,Derived,,MT.SESTDTC,,,
8,SE,SEENDTC,End Date/Time of Element,date,,,,,No,,,Derived,,MT.SEENDTC,,,
9,SE,TAETORD,Planned Order of Elements within Arm,integer,1,,,,No,,,Protocol,,,,,
1,SUPPAE,STUDYID,Study Identifier,text,7,,,,Yes,,,Protocol,,,,,
2,SUPPAE,RDOMAIN,Related Domain Abbreviation,text,2,,,,Yes,,,Derived,,MT.RDOMAIN,,,
3,SUPPAE,USUBJID,Unique Subject Identifier,text,14,,,,Yes,,,Derived,,MT.USUBJID,,,
4,SUPPAE,IDVAR,Identifying Variable,text,5,,,,No,,,Assigned,,,,,COM.IDVAR
5,SUPPAE,IDVARVAL,Identifying Variable Value,text,1,,,,No,,,Assigned,,,,,COM.IDVARVAL
6,SUPPAE,QNAM,Qualifier Variable Name,text,7,,,,Yes,,,Assigned,,,,,
7,SUPPAE,QLABEL,Qualifier Variable Label,text,30,,,,Yes,,,Assigned,,,,,
8,SUPPAE,QVAL,Data Value,text,60,,,,Yes,,,Assigned,,,,,
9,SUPPAE,QORIG,Origin,text,7,,,,Yes,,,Assigned,,,,,
10,SUPPAE,QEVAL,Evaluator,text,30,,,,No,,,Assigned,,,,,
1,SUPPCM,STUDYID,Study Identifier,text,7,,,,Yes,,,Protocol,,,,,
2,SUPPCM,RDOMAIN,Related Domain Abbreviation,text,2,,,,Yes,,,Derived,,MT.RDOMAIN,,,
3,SUPPCM,USUBJID,Unique Subject Identifier,text,14,,,,Yes,,,Derived,,MT.USUBJID,,,
4,SUPPCM,IDVAR,Identifying Variable,text,5,,,,No,,,Assigned,,,,,COM.IDVAR
5,SUPPCM,IDVARVAL,Identifying Variable Value,text,2,,,,No,,,Assigned,,,,,COM.IDVARVAL
6,SUPPCM,QNAM,Qualifier Variable Name,text,8,,,,Yes,,,Assigned,,,,,
7,SUPPCM,QLABEL,Qualifier Variable Label,text,26,,,,Yes,,,Assigned,,,,,
8,SUPPCM,QVAL,Data Value,text,43,,,,Yes,,,Assigned,,,,,
9,SUPPCM,QORIG,Origin,text,10,,,,Yes,,,Assigned,,,,,
10,SUPPCM,QEVAL,Evaluator,text,30,,,,No,,,Assigned,,,,,
1,SUPPDM,STUDYID,Study Identifier,text,7,,,,Yes,,,Protocol,,,,,
2,SUPPDM,RDOMAIN,Related Domain Abbreviation,text,2,,,,Yes,,,Derived,,MT.RDOMAIN,,,
3,SUPPDM,USUBJID,Unique Subject Identifier,text,14,,,,Yes,,,Derived,,MT.USUBJID,,,
4,SUPPDM,IDVAR,Identifying Variable,text,1,,,,No,,,Assigned,,,,,COM.IDVAR
5,SUPPDM,IDVARVAL,Identifying Variable Value,text,1,,,,No,,,Assigned,,,,,COM.IDVARVAL
6,SUPPDM,QNAM,Qualifier Variable Name,text,8,,,,Yes,,,Assigned,,,,,
7,SUPPDM,QLABEL,Qualifier Variable Label,text,26,,,,Yes,,,Assigned,,,,,
8,SUPPDM,QVAL,Data Value,text,30,,,,Yes,,,Assigned,,,,,
9,SUPPDM,QORIG,Origin,text,11,,,,Yes,,,Assigned,,,,,
10,SUPPDM,QEVAL,Evaluator,text,30,,,,No,,,Assigned,,,,,
1,SUPPEG,STUDYID,Study Identifier,text,7,,,,Yes,,,Protocol,,,,,
2,SUPPEG,RDOMAIN,Related Domain Abbreviation,text,2,,,,Yes,,,Derived,,MT.RDOMAIN,,,
3,SUPPEG,USUBJID,Unique Subject Identifier,text,14,,,,Yes,,,Derived,,MT.USUBJID,,,
4,SUPPEG,IDVAR,Identifying Variable,text,5,,,,No,,,Assigned,,,,,COM.IDVAR
5,SUPPEG,IDVARVAL,Identifying Variable Value,text,2,,,,No,,,Assigned,,,,,COM.IDVARVAL
6,SUPPEG,QNAM,Qualifier Variable Name,text,7,,,,Yes,,,Assigned,,,,,
7,SUPPEG,QLABEL,Qualifier Variable Label,text,36,,,,Yes,,,Assigned,,,,,
8,SUPPEG,QVAL,Data Value,text,2,,,,Yes,,,Assigned,,,,,
9,SUPPEG,QORIG,Origin,text,7,,,,Yes,,,Assigned,,,,,
10,SUPPEG,QEVAL,Evaluator,text,30,,,,No,,,Assigned,,,,,
1,SUPPEX,STUDYID,Study Identifier,text,7,,,,Yes,,,Protocol,,,,,
2,SUPPEX,RDOMAIN,Related Domain Abbreviation,text,2,,,,Yes,,,Derived,,MT.RDOMAIN,,,
3,SUPPEX,USUBJID,Unique Subject Identifier,text,14,,,,Yes,,,Derived,,MT.USUBJID,,,
4,SUPPEX,IDVAR,Identifying Variable,text,5,,,,No,,,Assigned,,,,,COM.IDVAR
5,SUPPEX,IDVARVAL,Identifying Variable Value,text,1,,,,No,,,Assigned,,,,,COM.IDVARVAL
6,SUPPEX,QNAM,Qualifier Variable Name,text,4,,,,Yes,,,Assigned,,,,,
7,SUPPEX,QLABEL,Qualifier Variable Label,text,25,,,,Yes,,,Assigned,,,,,
8,SUPPEX,QVAL,Data Value,text,2,,,,Yes,,,Assigned,,,,,
9,SUPPEX,QORIG,Origin,text,11,,,,Yes,,,Assigned,,,,,
10,SUPPEX,QEVAL,Evaluator,text,30,,,,No,,,Assigned,,,,,
1,SUPPLB,STUDYID,Study Identifier,text,7,,,,Yes,,,Protocol,,,,,
2,SUPPLB,RDOMAIN,Related Domain Abbreviation,text,2,,,,Yes,,,Derived,,MT.RDOMAIN,,,
3,SUPPLB,USUBJID,Unique Subject Identifier,text,14,,,,Yes,,,Derived,,MT.USUBJID,,,
4,SUPPLB,IDVAR,Identifying Variable,text,5,,,,No,,,Assigned,,,,,COM.IDVAR
5,SUPPLB,IDVARVAL,Identifying Variable Value,text,2,,,,No,,,Assigned,,,,,COM.IDVARVAL
6,SUPPLB,QNAM,Qualifier Variable Name,text,7,,,,Yes,,,Assigned,,,,,
7,SUPPLB,QLABEL,Qualifier Variable Label,text,36,,,,Yes,,,Assigned,,,,,
8,SUPPLB,QVAL,Data Value,text,2,,,,Yes,,,Assigned,,,,,
9,SUPPLB,QORIG,Origin,text,7,,,,Yes,,,Assigned,,,,,
10,SUPPLB,QEVAL,Evaluator,text,30,,,,No,,,Assigned,,,,,
1,SUPPQSCG,STUDYID,Study Identifier,text,7,,,,Yes,,,Protocol,,,,,
2,SUPPQSCG,RDOMAIN,Related Domain Abbreviation,text,2,,,,Yes,,,Derived,,MT.RDOMAIN,,,
3,SUPPQSCG,USUBJID,Unique Subject Identifier,text,14,,,,Yes,,,Derived,,MT.USUBJID,,,
4,SUPPQSCG,IDVAR,Identifying Variable,text,5,,,,No,,,Assigned,,,,,COM.IDVAR
5,SUPPQSCG,IDVARVAL,Identifying Variable Value,text,50,,,,No,,,Assigned,,,,,COM.IDVARVAL
6,SUPPQSCG,QNAM,Qualifier Variable Name,text,7,,,,Yes,,,Assigned,,,,,
7,SUPPQSCG,QLABEL,Qualifier Variable Label,text,36,,,,Yes,,,Assigned,,,,,
8,SUPPQSCG,QVAL,Data Value,text,3,,,,Yes,,,Assigned,,,,,
9,SUPPQSCG,QORIG,Origin,text,7,,,,Yes,,,Assigned,,,,,
10,SUPPQSCG,QEVAL,Evaluator,text,30,,,,No,,,Assigned,,,,,
1,SUPPQSCS,STUDYID,Study Identifier,text,7,,,,Yes,,,Protocol,,,,,
2,SUPPQSCS,RDOMAIN,Related Domain Abbreviation,text,2,,,,Yes,,,Derived,,MT.RDOMAIN,,,
3,SUPPQSCS,USUBJID,Unique Subject Identifier,text,14,,,,Yes,,,Derived,,MT.USUBJID,,,
4,SUPPQSCS,IDVAR,Identifying Variable,text,5,,,,No,,,Assigned,,,,,COM.IDVAR
5,SUPPQSCS,IDVARVAL,Identifying Variable Value,text,50,,,,No,,,Assigned,,,,,COM.IDVARVAL
6,SUPPQSCS,QNAM,Qualifier Variable Name,text,7,,,,Yes,,,Assigned,,,,,
7,SUPPQSCS,QLABEL,Qualifier Variable Label,text,36,,,,Yes,,,Assigned,,,,,
8,SUPPQSCS,QVAL,Data Value,text,3,,,,Yes,,,Assigned,,,,,
9,SUPPQSCS,QORIG,Origin,text,7,,,,Yes,,,Assigned,,,,,
10,SUPPQSCS,QEVAL,Evaluator,text,30,,,,No,,,Assigned,,,,,
1,SUPPQSMM,STUDYID,Study Identifier,text,7,,,,Yes,,,Protocol,,,,,
2,SUPPQSMM,RDOMAIN,Related Domain Abbreviation,text,2,,,,Yes,,,Derived,,MT.RDOMAIN,,,
3,SUPPQSMM,USUBJID,Unique Subject Identifier,text,14,,,,Yes,,,Derived,,MT.USUBJID,,,
4,SUPPQSMM,IDVAR,Identifying Variable,text,5,,,,No,,,Assigned,,,,,COM.IDVAR
5,SUPPQSMM,IDVARVAL,Identifying Variable Value,text,50,,,,No,,,Assigned,,,,,COM.IDVARVAL
6,SUPPQSMM,QNAM,Qualifier Variable Name,text,7,,,,Yes,,,Assigned,,,,,
7,SUPPQSMM,QLABEL,Qualifier Variable Label,text,36,,,,Yes,,,Assigned,,,,,
8,SUPPQSMM,QVAL,Data Value,text,3,,,,Yes,,,Assigned,,,,,
9,SUPPQSMM,QORIG,Origin,text,7,,,,Yes,,,Assigned,,,,,
10,SUPPQSMM,QEVAL,Evaluator,text,30,,,,No,,,Assigned,,,,,
1,SUPPVS,STUDYID,Study Identifier,text,7,,,,Yes,,,Protocol,,,,,
2,SUPPVS,RDOMAIN,Related Domain Abbreviation,text,2,,,,Yes,,,Derived,,MT.RDOMAIN,,,
3,SUPPVS,USUBJID,Unique Subject Identifier,text,14,,,,Yes,,,Derived,,MT.USUBJID,,,
4,SUPPVS,IDVAR,Identifying Variable,text,5,,,,No,,,Assigned,,,,,COM.IDVAR
5,SUPPVS,IDVARVAL,Identifying Variable Value,text,2,,,,No,,,Assigned,,,,,COM.IDVARVAL
6,SUPPVS,QNAM,Qualifier Variable Name,text,7,,,,Yes,,,Assigned,,,,,
7,SUPPVS,QLABEL,Qualifier Variable Label,text,36,,,,Yes,,,Assigned,,,,,
8,SUPPVS,QVAL,Data Value,text,2,,,,Yes,,,Assigned,,,,,
9,SUPPVS,QORIG,Origin,text,7,,,,Yes,,,Assigned,,,,,
10,SUPPVS,QEVAL,Evaluator,text,30,,,,No,,,Assigned,,,,,
1,SV,STUDYID,Study Identifier,text,7,,,,Yes,,,Protocol,,,,,
2,SV,DOMAIN,Domain Abbreviation,text,2,,,,Yes,CL.SV.DOMAIN,,Assigned,,,,,
3,SV,USUBJID,Unique Subject Identifier,text,14,,,,Yes,,,Derived,,MT.USUBJID,,,
4,SV,VISITNUM,Visit Number,integer,2,,,,Yes,,,Derived,,MT.SV.VISITNUM,,,
5,SV,VISIT,Visit Name,text,8,,,,No,,,Derived,,MT.SV.VISIT,,,
6,SV,VISITDY,Planned Study Day of Visit,integer,3,,,,No,,,Protocol,,,,,
7,SV,SVSTDTC,Start Date/Time of Visit,date,,,,,No,,,Derived,,MT.SVSTDTC,,,
8,SV,SVENDTC,End Date/Time of Visit,date,,,,,No,,,Derived,,MT.SVENDTC,,,
9,SV,SVSTDY,Study Day of Start of Visit,integer,3,,,,No,,,Derived,,MT.SVSTDY,,,
1,TA,STUDYID,Study Identifier,text,7,,,,Yes,,,Protocol,,,,,
2,TA,DOMAIN,Domain Abbreviation,text,2,,,,Yes,CL.TA.DOMAIN,,Assigned,,,,,
3,TA,ARMCD,Planned Arm Code,text,8,,,,Yes,CL.ARMCD,,Assigned,,,,,
4,TA,ARM,Description of Planned Arm,text,20,,,,Yes,CL.ARM,,Protocol,,,,,
5,TA,TAETORD,Order of Element within Arm,integer,1,,,,Yes,,,Assigned,,,,,
6,TA,ETCD,Element Code,text,8,,,,Yes,,,Assigned,,,,,
7,TA,ELEMENT,Description of Element,text,40,,,,No,,,Protocol,,,,,
8,TA,TABRANCH,Branch,text,35,,,,No,,,Protocol,,,,,
9,TA,TATRANS,Transition Rule,text,1,,,,No,,,Protocol,,,,,
10,TA,EPOCH,Epoch,text,30,,,,Yes,,,Protocol,,,,,
1,TE,STUDYID,Study Identifier,text,7,,,,Yes,,,Protocol,,,,,
2,TE,DOMAIN,Domain Abbreviation,text,2,,,,Yes,CL.TE.DOMAIN,,Assigned,,,,,
3,TE,ETCD,Element Code,text,8,,,,Yes,,,Assigned,,,,,
4,TE,ELEMENT,Description of Element,text,40,,,,Yes,,,Protocol,,,,,
5,TE,TESTRL,Rule for Start of Element,text,24,,,,Yes,,,Protocol,,,,,
6,TE,TEDUR,Planned Duration of Element,text,4,,,,No,,,Protocol,,,,,
1,TI,STUDYID,Study Identifier,text,7,,,,Yes,,,Protocol,,,,,
2,TI,DOMAIN,Domain Abbreviation,text,2,,,,Yes,CL.TI.DOMAIN,,Assigned,,,,,
3,TI,IETESTCD,Incl/Excl Criterion Short Name,text,6,,,,Yes,CL.IETESTCD,,Assigned,,,,,
4,TI,IETEST,Inclusion/Exclusion Criterion,text,92,,,,Yes,CL.IETEST,,CRF,4 5,,,,
5,TI,IECAT,Inclusion/Exclusion Category,text,9,,,,Yes,,,CRF,4 5,,,,
1,TS,STUDYID,Study Identifier,text,7,,,,Yes,,,Protocol,,,,,
2,TS,DOMAIN,Domain Abbreviation,text,2,,,,Yes,CL.TS.DOMAIN,,Assigned,,,,,
3,TS,TSSEQ,Sequence Number,integer,1,,,,Yes,,,Derived,,MT.TSSEQ,,,
4,TS,TSPARMCD,Trial Summary Parameter Short Name,text,8,,,,Yes,CL.TSPARMCD,,Assigned,,,,,
5,TS,TSPARM,Trial Summary Parameter,text,36,,,,Yes,CL.TSPARM,,Assigned,,,,,
6,TS,TSVAL,Parameter Value,text,57,,,,Yes,,,Protocol,,,,,
1,TV,STUDYID,Study Identifier,text,7,,,,Yes,,,Protocol,,,,,
2,TV,DOMAIN,Domain Abbreviation,text,2,,,,Yes,CL.TV.DOMAIN,,Assigned,,,,,
3,TV,VISITNUM,Visit Number,integer,2,,,,Yes,,,Assigned,,,,,
4,TV,VISIT,Visit Name,text,12,,,,No,,,Protocol,,,,,
5,TV,VISITDY,Planned Study Day of Visit,integer,3,,,,No,,,Protocol,,,,,
6,TV,ARMCD,Planned Arm Code,text,1,,,,No,,,Assigned,,,,,
7,TV,TVSTRL,Visit Start Rule,text,30,,,,Yes,,,Protocol,,,,,
1,VS,STUDYID,Study Identifier,text,7,,,,Yes,,,Protocol,,,,,
2,VS,DOMAIN,Domain Abbreviation,text,2,,,,Yes,CL.VS.DOMAIN,,Assigned,,,,,
3,VS,USUBJID,Unique Subject Identifier,text,14,,,,Yes,,,Derived,,MT.USUBJID,,,
4,VS,VSSEQ,Sequence Number,integer,2,,,,Yes,,,Derived,,MT.SEQ,,,
5,VS,VSTESTCD,Vital Signs Test Short Name,text,20,,,,Yes,CL.VSTESTCD,,Assigned,,,,,
6,VS,VSTEST,Vital Signs Test Name,text,24,,,,Yes,CL.VSTEST,,CRF,11,,,,
7,VS,VSPOS,Vital Signs Position of Subject,text,7,,,,No,,,CRF,11,,,,
8,VS,VSORRES,Result or Finding in Original Units,text,30,,,,No,,,CRF,11,,,,
9,VS,VSORRESU,Original Units,text,20,,,,No,,,CRF,11,,,,
10,VS,VSSTRESC,Character Result/Finding in Std Format,text,30,,,,No,,,Derived,,MT.VSSTRESC,,,
11,VS,VSSTRESN,Numeric Result/Finding in Standard Units,float,5,,5.1,,No,,,Derived,,MT.VSSTRESN,,,
12,VS,VSSTRESU,Standard Units,text,9,,,,No,CL.VSRESU,,Assigned,,,,,COM.VSSTRESU
13,VS,VSBLFL,Baseline Flag,text,1,,,,No,CL.NY,,Derived,,MT.VSBLFL,,,
14,VS,VISITNUM,Visit Number,integer,2,,,,No,,,Assigned,,,,,COM.VS.VISITNUM
15,VS,VISIT,Visit Name,text,8,,,,No,,,Assigned,,,,,
16,VS,VISITDY,Planned Study Day of Visit,integer,3,,,,No,,,Protocol,,,,,
17,VS,VSDTC,Date/Time of Measurements,date,,,,,No,,,CRF,11,,,,
18,VS,VSDY,Study Day of Vital Signs,integer,3,,,,No,,,Derived,,MT.VSDY,,,
