<?xml version='1.0' encoding='UTF-8'?>
<ODM FileOID="CDISC_CT.SDTM.2021-06-25" AsOfDateTime="2021-06-25T00:00:00" CreationDateTime="2026-06-25T18:17:28.242505+00:00" ODMVersion="1.3.2" FileType="Snapshot" Granularity="Metadata" Originator="Sam Hume" SourceSystem="NCI Thesaurus" SourceSystemVersion="2021-06-25" xmlns="http://www.cdisc.org/ns/odm/v1.3" xmlns:nciodm="http://ncicb.nci.nih.gov/xml/odm/EVS/CDISC" xmlns:xs="http://www.w3.org/2001/XMLSchema-instance" xmlns:xml="http://www.w3.org/XML/1998/namespace" xmlns:xlink="http://www.w3.org/1999/xlink"><Study OID="CDISC_CT.SDTM.2021-06-25"><GlobalVariables><StudyName>CDISC SDTM Controlled Terminology</StudyName><StudyDescription>CDISC SDTM Controlled Terminology, 2021-06-25</StudyDescription><ProtocolName>CDISC SDTM Controlled Terminology</ProtocolName></GlobalVariables><MetaDataVersion OID="CDISC_CT_MetaDataVersion.SDTM.2021-06-25" Name="CDISC SDTM Controlled Terminology" Description="CDISC SDTM Controlled Terminology, 2021-06-25"><CodeList OID="CL.C141657.TENMW1TC" Name="10-Meter Walk/Run Functional Test Test Code" DataType="text" nciodm:ExtCodeID="C141657" nciodm:CodeListExtensible="No"><Description><TranslatedText xml:lang="en">10-Meter Walk/Run test code.</TranslatedText></Description><EnumeratedItem CodedValue="TENMW101" nciodm:ExtCodeID="C174106"><CDISCSynonym>TENMW1-Was Walk/Run Performed</CDISCSynonym><CDISCDefinition>10-Meter Walk/Run - Was the 10-meter walk/run performed?</CDISCDefinition><PreferredTerm>10-Meter Walk/Run - Was Walk/Run Performed</PreferredTerm></EnumeratedItem><EnumeratedItem CodedValue="TENMW102" nciodm:ExtCodeID="C141700"><CDISCSynonym>TENMW1-Time to Walk/Run 10 Meters</CDISCSynonym><CDISCDefinition>10-Meter Walk/Run - If yes, time to walk or run 10 meters.</CDISCDefinition><PreferredTerm>10-Meter Walk/Run - Time to Walk/Run 10 Meters</PreferredTerm></EnumeratedItem><EnumeratedItem CodedValue="TENMW103" nciodm:ExtCodeID="C147592"><CDISCSynonym>TENMW1-Wear Orthoses</CDISCSynonym><CDISCDefinition>10-Meter Walk/Run - If yes, did subject wear orthoses?</CDISCDefinition><PreferredTerm>10-Meter Walk/Run - Wear Orthoses</PreferredTerm></EnumeratedItem><EnumeratedItem CodedValue="TENMW104" nciodm:ExtCodeID="C141701"><CDISCSynonym>TENMW1-Test Grade</CDISCSynonym><CDISCDefinition>10-Meter Walk/Run - Test grade.</CDISCDefinition><PreferredTerm>10-Meter Walk/Run - Test Grade</PreferredTerm></EnumeratedItem><CDISCSubmissionValue>TENMW1TC</CDISCSubmissionValue><CDISCSynonym>10-Meter Walk/Run Functional Test Test Code</CDISCSynonym><PreferredTerm>CDISC Functional Test 10-Meter Walk/Run Test Code Terminology</PreferredTerm></CodeList><CodeList OID="CL.C141656.TENMW1TN" Name="10-Meter Walk/Run Functional Test Test Name" DataType="text" nciodm:ExtCodeID="C141656" nciodm:CodeListExtensible="No"><Description><TranslatedText xml:lang="en">10-Meter Walk/Run test name.</TranslatedText></Description><EnumeratedItem CodedValue="TENMW1-Test Grade" nciodm:ExtCodeID="C141701"><CDISCSynonym>TENMW1-Test Grade</CDISCSynonym><CDISCDefinition>10-Meter Walk/Run - Test grade.</CDISCDefinition><PreferredTerm>10-Meter Walk/Run - Test Grade</PreferredTerm></EnumeratedItem><EnumeratedItem CodedValue="TENMW1-Time to Walk/Run 10 Meters" nciodm:ExtCodeID="C141700"><CDISCSynonym>TENMW1-Time to Walk/Run 10 Meters</CDISCSynonym><CDISCDefinition>10-Meter Walk/Run - If yes, time to walk or run 10 meters.</CDISCDefinition><PreferredTerm>10-Meter Walk/Run - Time to Walk/Run 10 Meters</PreferredTerm></EnumeratedItem><EnumeratedItem CodedValue="TENMW1-Was Walk/Run Performed" nciodm:ExtCodeID="C174106"><CDISCSynonym>TENMW1-Was Walk/Run Performed</CDISCSynonym><CDISCDefinition>10-Meter Walk/Run - Was the 10-meter walk/run performed?</CDISCDefinition><PreferredTerm>10-Meter Walk/Run - Was Walk/Run Performed</PreferredTerm></EnumeratedItem><EnumeratedItem CodedValue="TENMW1-Wear Orthoses" nciodm:ExtCodeID="C147592"><CDISCSynonym>TENMW1-Wear Orthoses</CDISCSynonym><CDISCDefinition>10-Meter Walk/Run - If yes, did subject wear orthoses?</CDISCDefinition><PreferredTerm>10-Meter Walk/Run - Wear Orthoses</PreferredTerm></EnumeratedItem><CDISCSubmissionValue>TENMW1TN</CDISCSubmissionValue><CDISCSynonym>10-Meter Walk/Run Functional Test Test Name</CDISCSynonym><PreferredTerm>CDISC Functional Test 10-Meter Walk/Run Test Name Terminology</PreferredTerm></CodeList><CodeList OID="CL.C141663.A4STR1TC" Name="4-Stair Ascend Functional Test Test Code" DataType="text" nciodm:ExtCodeID="C141663" nciodm:CodeListExtensible="No"><Description><TranslatedText xml:lang="en">4-Stair Ascend test code.</TranslatedText></Description><EnumeratedItem CodedValue="A4STR101" nciodm:ExtCodeID="C174103"><CDISCSynonym>A4STR1-Was 4-Stair Ascend Performed</CDISCSynonym><CDISCDefinition>4-Stair Ascend - Was the 4-stair ascend performed?</CDISCDefinition><PreferredTerm>4-Stair Ascend - Was 4-Stair Ascend Performed</PreferredTerm></EnumeratedItem><EnumeratedItem CodedValue="A4STR102" nciodm:ExtCodeID="C141706"><CDISCSynonym>A4STR1-Time to Do 4-Stair Ascend</CDISCSynonym><CDISCDefinition>4-Stair Ascend - If yes, time taken to do 4-stair ascend.</CDISCDefinition><PreferredTerm>4-Stair Ascend - Time to Do 4-Stair Ascend</PreferredTerm></EnumeratedItem><EnumeratedItem CodedValue="A4STR103" nciodm:ExtCodeID="C147590"><CDISCSynonym>A4STR1-Wear Orthoses</CDISCSynonym><CDISCDefinition>4-Stair Ascend - If yes, did subject wear orthoses?</CDISCDefinition><PreferredTerm>4-Stair Ascend - Wear Orthoses</PreferredTerm></EnumeratedItem><EnumeratedItem CodedValue="A4STR104" nciodm:ExtCodeID="C141707"><CDISCSynonym>A4STR1-Test Grade</CDISCSynonym><CDISCDefinition>4-Stair Ascend - Test grade.</CDISCDefinition><PreferredTerm>4-Stair Ascend - Test Grade</PreferredTerm></EnumeratedItem><CDISCSubmissionValue>A4STR1TC</CDISCSubmissionValue><CDISCSynonym>4-Stair Ascend Functional Test Test Code</CDISCSynonym><PreferredTerm>CDISC Functional Test 4-Stair Ascend Test Code Terminology</PreferredTerm></CodeList><CodeList OID="CL.C141662.A4STR1TN" Name="4-Stair Ascend Functional Test Test Name" DataType="text" nciodm:ExtCodeID="C141662" nciodm:CodeListExtensible="No"><Description><TranslatedText xml:lang="en">4-Stair Ascend test name.</TranslatedText></Description><EnumeratedItem CodedValue="A4STR1-Test Grade" nciodm:ExtCodeID="C141707"><CDISCSynonym>A4STR1-Test Grade</CDISCSynonym><CDISCDefinition>4-Stair Ascend - Test grade.</CDISCDefinition><PreferredTerm>4-Stair Ascend - Test Grade</PreferredTerm></EnumeratedItem><EnumeratedItem CodedValue="A4STR1-Time to Do 4-Stair Ascend" nciodm:ExtCodeID="C141706"><CDISCSynonym>A4STR1-Time to Do 4-Stair Ascend</CDISCSynonym><CDISCDefinition>4-Stair Ascend - If yes, time taken to do 4-stair ascend.</CDISCDefinition><PreferredTerm>4-Stair Ascend - Time to Do 4-Stair Ascend</PreferredTerm></EnumeratedItem><EnumeratedItem CodedValue="A4STR1-Was 4-Stair Ascend Performed" nciodm:ExtCodeID="C174103"><CDISCSynonym>A4STR1-Was 4-Stair Ascend Performed</CDISCSynonym><CDISCDefinition>4-Stair Ascend - Was the 4-stair ascend performed?</CDISCDefinition><PreferredTerm>4-Stair Ascend - Was 4-Stair Ascend Performed</PreferredTerm></EnumeratedItem><EnumeratedItem CodedValue="A4STR1-Wear Orthoses" nciodm:ExtCodeID="C147590"><CDISCSynonym>A4STR1-Wear Orthoses</CDISCSynonym><CDISCDefinition>4-Stair Ascend - If yes, did subject wear orthoses?</CDISCDefinition><PreferredTerm>4-Stair Ascend - Wear Orthoses</PreferredTerm></EnumeratedItem><CDISCSubmissionValue>A4STR1TN</CDISCSubmissionValue><CDISCSynonym>4-Stair Ascend Functional Test Test Name</CDISCSynonym><PreferredTerm>CDISC Functional Test 4-Stair Ascend Test Name Terminology</PreferredTerm></CodeList><CodeList OID="CL.C141661.D4STR1TC" Name="4-Stair Descend Functional Test Test Code" DataType="text" nciodm:ExtCodeID="C141661" nciodm:CodeListExtensible="No"><Description><TranslatedText xml:lang="en">4-Stair Descend test code.</TranslatedText></Description><EnumeratedItem CodedValue="D4STR101" nciodm:ExtCodeID="C174104"><CDISCSynonym>D4STR1-Was 4-Stair Descend Performed</CDISCSynonym><CDISCDefinition>4-Stair Descend - Was the 4-stair descend performed?</CDISCDefinition><PreferredTerm>4-Stair Descend - Was 4-Stair Descend Performed</PreferredTerm></EnumeratedItem><EnumeratedItem CodedValue="D4STR102" nciodm:ExtCodeID="C141704"><CDISCSynonym>D4STR1-Time to Do 4-Stair Descend</CDISCSynonym><CDISCDefinition>4-Stair Descend - If yes, time taken to do 4-stair descend.</CDISCDefinition><PreferredTerm>4-Stair Descend - Time to Do 4-Stair Descend</PreferredTerm></EnumeratedItem><EnumeratedItem CodedValue="D4STR103" nciodm:ExtCodeID="C147591"><CDISCSynonym>D4STR1-Wear Orthoses</CDISCSynonym><CDISCDefinition>4-Stair Descend - If yes, did subject wear orthoses?</CDISCDefinition><PreferredTerm>4-Stair Descend - Wear Orthoses</PreferredTerm></EnumeratedItem><EnumeratedItem CodedValue="D4STR104" nciodm:ExtCodeID="C141705"><CDISCSynonym>D4STR1-Test Grade</CDISCSynonym><CDISCDefinition>4-Stair Descend - Test grade.</CDISCDefinition><PreferredTerm>4-Stair Descend - Test Grade</PreferredTerm></EnumeratedItem><CDISCSubmissionValue>D4STR1TC</CDISCSubmissionValue><CDISCSynonym>4-Stair Descend Functional Test Test Code</CDISCSynonym><PreferredTerm>CDISC Functional Test 4-Stair Descend Test Code Terminology</PreferredTerm></CodeList><CodeList OID="CL.C141660.D4STR1TN" Name="4-Stair Descend Functional Test Test Name" DataType="text" nciodm:ExtCodeID="C141660" nciodm:CodeListExtensible="No"><Description><TranslatedText xml:lang="en">4-Stair Descend test name.</TranslatedText></Description><EnumeratedItem CodedValue="D4STR1-Test Grade" nciodm:ExtCodeID="C141705"><CDISCSynonym>D4STR1-Test Grade</CDISCSynonym><CDISCDefinition>4-Stair Descend - Test grade.</CDISCDefinition><PreferredTerm>4-Stair Descend - Test Grade</PreferredTerm></EnumeratedItem><EnumeratedItem CodedValue="D4STR1-Time to Do 4-Stair Descend" nciodm:ExtCodeID="C141704"><CDISCSynonym>D4STR1-Time to Do 4-Stair Descend</CDISCSynonym><CDISCDefinition>4-Stair Descend - If yes, time taken to do 4-stair descend.</CDISCDefinition><PreferredTerm>4-Stair Descend - Time to Do 4-Stair Descend</PreferredTerm></EnumeratedItem><EnumeratedItem CodedValue="D4STR1-Was 4-Stair Descend Performed" nciodm:ExtCodeID="C174104"><CDISCSynonym>D4STR1-Was 4-Stair Descend Performed</CDISCSynonym><CDISCDefinition>4-Stair Descend - Was the 4-stair descend performed?</CDISCDefinition><PreferredTerm>4-Stair Descend - Was 4-Stair Descend Performed</PreferredTerm></EnumeratedItem><EnumeratedItem CodedValue="D4STR1-Wear Orthoses" nciodm:ExtCodeID="C147591"><CDISCSynonym>D4STR1-Wear Orthoses</CDISCSynonym><CDISCDefinition>4-Stair Descend - If yes, did subject wear orthoses?</CDISCDefinition><PreferredTerm>4-Stair Descend - Wear Orthoses</PreferredTerm></EnumeratedItem><CDISCSubmissionValue>D4STR1TN</CDISCSubmissionValue><CDISCSynonym>4-Stair Descend Functional Test Test Name</CDISCSynonym><PreferredTerm>CDISC Functional Test 4-Stair Descend Test Name Terminology</PreferredTerm></CodeList><CodeList OID="CL.C115388.SIXMW1TC" Name="6 Minute Walk Functional Test Test Code" DataType="text" nciodm:ExtCodeID="C115388" nciodm:CodeListExtensible="No"><Description><TranslatedText xml:lang="en">6 Minute Walk Test test code.</TranslatedText></Description><EnumeratedItem CodedValue="SIXMW101" nciodm:ExtCodeID="C115800"><CDISCSynonym>SIXMW1-Distance at 1 Minute</CDISCSynonym><CDISCDefinition>6 Minute Walk Test - Distance at 1 minute.</CDISCDefinition><PreferredTerm>6MWT - Distance at 1 Minute</PreferredTerm></EnumeratedItem><EnumeratedItem CodedValue="SIXMW102" nciodm:ExtCodeID="C115801"><CDISCSynonym>SIXMW1-Distance at 2 Minutes</CDISCSynonym><CDISCDefinition>6 Minute Walk Test - Distance at 2 minutes.</CDISCDefinition><PreferredTerm>6MWT - Distance at 2 Minutes</PreferredTerm></EnumeratedItem><EnumeratedItem CodedValue="SIXMW103" nciodm:ExtCodeID="C115802"><CDISCSynonym>SIXMW1-Distance at 3 Minutes</CDISCSynonym><CDISCDefinition>6 Minute Walk Test - Distance at 3 minutes.</CDISCDefinition><PreferredTerm>6MWT - Distance at 3 Minutes</PreferredTerm></EnumeratedItem><EnumeratedItem CodedValue="SIXMW104" nciodm:ExtCodeID="C115803"><CDISCSynonym>SIXMW1-Distance at 4 Minutes</CDISCSynonym><CDISCDefinition>6 Minute Walk Test - Distance at 4 minutes.</CDISCDefinition><PreferredTerm>6MWT - Distance at 4 Minutes</PreferredTerm></EnumeratedItem><EnumeratedItem CodedValue="SIXMW105" nciodm:ExtCodeID="C115804"><CDISCSynonym>SIXMW1-Distance at 5 Minutes</CDISCSynonym><CDISCDefinition>6 Minute Walk Test - Distance at 5 minutes.</CDISCDefinition><PreferredTerm>6MWT - Distance at 5 Minutes</PreferredTerm></EnumeratedItem><EnumeratedItem CodedValue="SIXMW106" nciodm:ExtCodeID="C115805"><CDISCSynonym>SIXMW1-Distance at 6 Minutes</CDISCSynonym><CDISCDefinition>6 Minute Walk Test - Distance at 6 minutes.</CDISCDefinition><PreferredTerm>6MWT - Distance at 6 Minutes</PreferredTerm></EnumeratedItem><CDISCSubmissionValue>SIXMW1TC</CDISCSubmissionValue><CDISCSynonym>6 Minute Walk Functional Test Test Code</CDISCSynonym><PreferredTerm>CDISC Functional Test 6MWT Test Code Terminology</PreferredTerm></CodeList><CodeList OID="CL.C115387.SIXMW1TN" Name="6 Minute Walk Functional Test Test Name" DataType="text" nciodm:ExtCodeID="C115387" nciodm:CodeListExtensible="No"><Description><TranslatedText xml:lang="en">6 Minute Walk Test test name.</TranslatedText></Description><EnumeratedItem CodedValue="SIXMW1-Distance at 1 Minute" nciodm:ExtCodeID="C115800"><CDISCSynonym>SIXMW1-Distance at 1 Minute</CDISCSynonym><CDISCDefinition>6 Minute Walk Test - Distance at 1 minute.</CDISCDefinition><PreferredTerm>6MWT - Distance at 1 Minute</PreferredTerm></EnumeratedItem><EnumeratedItem CodedValue="SIXMW1-Distance at 2 Minutes" nciodm:ExtCodeID="C115801"><CDISCSynonym>SIXMW1-Distance at 2 Minutes</CDISCSynonym><CDISCDefinition>6 Minute Walk Test - Distance at 2 minutes.</CDISCDefinition><PreferredTerm>6MWT - Distance at 2 Minutes</PreferredTerm></EnumeratedItem><EnumeratedItem CodedValue="SIXMW1-Distance at 3 Minutes" nciodm:ExtCodeID="C115802"><CDISCSynonym>SIXMW1-Distance at 3 Minutes</CDISCSynonym><CDISCDefinition>6 Minute Walk Test - Distance at 3 minutes.</CDISCDefinition><PreferredTerm>6MWT - Distance at 3 Minutes</PreferredTerm></EnumeratedItem><EnumeratedItem CodedValue="SIXMW1-Distance at 4 Minutes" nciodm:ExtCodeID="C115803"><CDISCSynonym>SIXMW1-Distance at 4 Minutes</CDISCSynonym><CDISCDefinition>6 Minute Walk Test - Distance at 4 minutes.</CDISCDefinition><PreferredTerm>6MWT - Distance at 4 Minutes</PreferredTerm></EnumeratedItem><EnumeratedItem CodedValue="SIXMW1-Distance at 5 Minutes" nciodm:ExtCodeID="C115804"><CDISCSynonym>SIXMW1-Distance at 5 Minutes</CDISCSynonym><CDISCDefinition>6 Minute Walk Test - Distance at 5 minutes.</CDISCDefinition><PreferredTerm>6MWT - Distance at 5 Minutes</PreferredTerm></EnumeratedItem><EnumeratedItem CodedValue="SIXMW1-Distance at 6 Minutes" nciodm:ExtCodeID="C115805"><CDISCSynonym>SIXMW1-Distance at 6 Minutes</CDISCSynonym><CDISCDefinition>6 Minute Walk Test - Distance at 6 minutes.</CDISCDefinition><PreferredTerm>6MWT - Distance at 6 Minutes</PreferredTerm></EnumeratedItem><CDISCSubmissionValue>SIXMW1TN</CDISCSubmissionValue><CDISCSynonym>6 Minute Walk Functional Test Test Name</CDISCSynonym><PreferredTerm>CDISC Functional Test 6MWT Test Name Terminology</PreferredTerm></CodeList><CodeList OID="CL.C101807.AVL01TC" Name="ADNI Auditory Verbal Learning Functional Test Test Code" DataType="text" nciodm:ExtCodeID="C101807" nciodm:CodeListExtensible="No"><Description><TranslatedText xml:lang="en">ADNI AVLT test code.</TranslatedText></Description><EnumeratedItem CodedValue="AVL01001" nciodm:ExtCodeID="C101896"><CDISCSynonym>AVL01-List A Recall 1 Word 1</CDISCSynonym><CDISCDefinition>Auditory Verbal Learning Test Version A - List A, Recall 1, Word 1.</CDISCDefinition><PreferredTerm>ADNI AVLT - List A Recall 1 Word 1</PreferredTerm></EnumeratedItem><EnumeratedItem CodedValue="AVL01002" nciodm:ExtCodeID="C101897"><CDISCSynonym>AVL01-List A Recall 1 Word 2</CDISCSynonym><CDISCDefinition>Auditory Verbal Learning Test Version A - List A, Recall 1, Word 2.</CDISCDefinition><PreferredTerm>ADNI AVLT - List A Recall 1 Word 2</PreferredTerm></EnumeratedItem><EnumeratedItem CodedValue="AVL01003" nciodm:ExtCodeID="C101898"><CDISCSynonym>AVL01-List A Recall 1 Word 3</CDISCSynonym><CDISCDefinition>Auditory Verbal Learning Test Version A - List A, Recall 1, Word 3.</CDISCDefinition><PreferredTerm>ADNI AVLT - List A Recall 1 Word 3</PreferredTerm></EnumeratedItem><EnumeratedItem CodedValue="AVL01004" nciodm:ExtCodeID="C101899"><CDISCSynonym>AVL01-List A Recall 1 Word 4</CDISCSynonym><CDISCDefinition>Auditory Verbal Learning Test Version A - List A, Recall 1, Word 4.</CDISCDefinition><PreferredTerm>ADNI AVLT - List A Recall 1 Word 4</PreferredTerm></EnumeratedItem><EnumeratedItem CodedValue="AVL01005" nciodm:ExtCodeID="C101900"><CDISCSynonym>AVL01-List A Recall 1 Word 5</CDISCSynonym><CDISCDefinition>Auditory Verbal Learning Test Version A - List A, Recall 1, Word 5.</CDISCDefinition><PreferredTerm>ADNI AVLT - List A Recall 1 Word 5</PreferredTerm></EnumeratedItem><EnumeratedItem CodedValue="AVL01006" nciodm:ExtCodeID="C101901"><CDISCSynonym>AVL01-List A Recall 1 Word 6</CDISCSynonym><CDISCDefinition>Auditory Verbal Learning Test Version A - List A, Recall 1, Word 6.</CDISCDefinition><PreferredTerm>ADNI AVLT - List A Recall 1 Word 6</PreferredTerm></EnumeratedItem><EnumeratedItem CodedValue="AVL01007" nciodm:ExtCodeID="C101902"><CDISCSynonym>AVL01-List A Recall 1 Word 7</CDISCSynonym><CDISCDefinition>Auditory Verbal Learning Test Version A - List A, Recall 1, Word 7.</CDISCDefinition><PreferredTerm>ADNI AVLT - List A Recall 1 Word 7</PreferredTerm></EnumeratedItem><EnumeratedItem CodedValue="AVL01008" nciodm:ExtCodeID="C101903"><CDISCSynonym>AVL01-List A Recall 1 Word 8</CDISCSynonym><CDISCDefinition>Auditory Verbal Learning Test Version A - List A, Recall 1, Word 8.</CDISCDefinition><PreferredTerm>ADNI AVLT - List A Recall 1 Word 8</PreferredTerm></EnumeratedItem><EnumeratedItem CodedValue="AVL01009" nciodm:ExtCodeID="C101904"><CDISCSynonym>AVL01-List A Recall 1 Word 9</CDISCSynonym><CDISCDefinition>Auditory Verbal Learning Test Version A - List A, Recall 1, Word 9.</CDISCDefinition><PreferredTerm>ADNI AVLT - List A Recall 1 Word 9</PreferredTerm></EnumeratedItem><EnumeratedItem CodedValue="AVL01010" nciodm:ExtCodeID="C101905"><CDISCSynonym>AVL01-List A Recall 1 Word 10</CDISCSynonym><CDISCDefinition>Auditory Verbal Learning Test Version A - List A, Recall 1, Word 10.</CDISCDefinition><PreferredTerm>ADNI AVLT - List A Recall 1 Word 10</PreferredTerm></EnumeratedItem><EnumeratedItem CodedValue="AVL01011" nciodm:ExtCodeID="C101906"><CDISCSynonym>AVL01-List A Recall 1 Word 11</CDISCSynonym><CDISCDefinition>Auditory Verbal Learning Test Version A - List A, Recall 1, Word 11.</CDISCDefinition><PreferredTerm>ADNI AVLT - List A Recall 1 Word 11</PreferredTerm></EnumeratedItem><EnumeratedItem CodedValue="AVL01012" nciodm:ExtCodeID="C101907"><CDISCSynonym>AVL01-List A Recall 1 Word 12</CDISCSynonym><CDISCDefinition>Auditory Verbal Learning Test Version A - List A, Recall 1, Word 12.</CDISCDefinition><PreferredTerm>ADNI AVLT - List A Recall 1 Word 12</PreferredTerm></EnumeratedItem><EnumeratedItem CodedValue="AVL01013" nciodm:ExtCodeID="C101908"><CDISCSynonym>AVL01-List A Recall 1 Word 13</CDISCSynonym><CDISCDefinition>Auditory Verbal Learning Test Version A - List A, Recall 1, Word 13.</CDISCDefinition><PreferredTerm>ADNI AVLT - List A Recall 1 Word 13</PreferredTerm></EnumeratedItem><EnumeratedItem CodedValue="AVL01014" nciodm:ExtCodeID="C101909"><CDISCSynonym>AVL01-List A Recall 1 Word 14</CDISCSynonym><CDISCDefinition>Auditory Verbal Learning Test Version A - List A, Recall 1, Word 14.</CDISCDefinition><PreferredTerm>ADNI AVLT - List A Recall 1 Word 14</PreferredTerm></EnumeratedItem><EnumeratedItem CodedValue="AVL01015" nciodm:ExtCodeID="C101910"><CDISCSynonym>AVL01-List A Recall 1 Word 15</CDISCSynonym><CDISCDefinition>Auditory Verbal Learning Test Version A - List A, Recall 1, Word 15.</CDISCDefinition><PreferredTerm>ADNI AVLT - List A Recall 1 Word 15</PreferredTerm></EnumeratedItem><EnumeratedItem CodedValue="AVL01016" nciodm:ExtCodeID="C101911"><CDISCSynonym>AVL01-List A Recall 1 Total</CDISCSynonym><CDISCDefinition>Auditory Verbal Learning Test Version A - The number of words recalled from List A, first attempt.</CDISCDefinition><PreferredTerm>ADNI AVLT - List A Recall 1 Total</PreferredTerm></EnumeratedItem><EnumeratedItem CodedValue="AVL01017" nciodm:ExtCodeID="C101912"><CDISCSynonym>AVL01-List A Intrusions 1</CDISCSynonym><CDISCDefinition>Auditory Verbal Learning Test Version A - The number of intrusions while recalling List A, first attempt.</CDISCDefinition><PreferredTerm>ADNI AVLT - List A Intrusions 1</PreferredTerm></EnumeratedItem><EnumeratedItem CodedValue="AVL01018" nciodm:ExtCodeID="C101913"><CDISCSynonym>AVL01-List A Recall 2 Word 1</CDISCSynonym><CDISCDefinition>Auditory Verbal Learning Test Version A - List A, Recall 2, Word 1.</CDISCDefinition><PreferredTerm>ADNI AVLT - List A Recall 2 Word 1</PreferredTerm></EnumeratedItem><EnumeratedItem CodedValue="AVL01019" nciodm:ExtCodeID="C101914"><CDISCSynonym>AVL01-List A Recall 2 Word 2</CDISCSynonym><CDISCDefinition>Auditory Verbal Learning Test Version A - List A, Recall 2, Word 2.</CDISCDefinition><PreferredTerm>ADNI AVLT - List A Recall 2 Word 2</PreferredTerm></EnumeratedItem><EnumeratedItem CodedValue="AVL01020" nciodm:ExtCodeID="C101915"><CDISCSynonym>AVL01-List A Recall 2 Word 3</CDISCSynonym><CDISCDefinition>Auditory Verbal Learning Test Version A - List A, Recall 2, Word 3.</CDISCDefinition><PreferredTerm>ADNI AVLT - List A Recall 2 Word 3</PreferredTerm></EnumeratedItem><EnumeratedItem CodedValue="AVL01021" nciodm:ExtCodeID="C101916"><CDISCSynonym>AVL01-List A Recall 2 Word 4</CDISCSynonym><CDISCDefinition>Auditory Verbal Learning Test Version A - List A, Recall 2, Word 4.</CDISCDefinition><PreferredTerm>ADNI AVLT - List A Recall 2 Word 4</PreferredTerm></EnumeratedItem><EnumeratedItem CodedValue="AVL01022" nciodm:ExtCodeID="C101917"><CDISCSynonym>AVL01-List A Recall 2 Word 5</CDISCSynonym><CDISCDefinition>Auditory Verbal Learning Test Version A - List A, Recall 2, Word 5.</CDISCDefinition><PreferredTerm>ADNI AVLT - List A Recall 2 Word 5</PreferredTerm></EnumeratedItem><EnumeratedItem CodedValue="AVL01023" nciodm:ExtCodeID="C101918"><CDISCSynonym>AVL01-List A Recall 2 Word 6</CDISCSynonym><CDISCDefinition>Auditory Verbal Learning Test Version A - List A, Recall 2, Word 6.</CDISCDefinition><PreferredTerm>ADNI AVLT - List A Recall 2 Word 6</PreferredTerm></EnumeratedItem><EnumeratedItem CodedValue="AVL01024" nciodm:ExtCodeID="C101919"><CDISCSynonym>AVL01-List A Recall 2 Word 7</CDISCSynonym><CDISCDefinition>Auditory Verbal Learning Test Version A - List A, Recall 2, Word 7.</CDISCDefinition><PreferredTerm>ADNI AVLT - List A Recall 2 Word 7</PreferredTerm></EnumeratedItem><EnumeratedItem CodedValue="AVL01025" nciodm:ExtCodeID="C101920"><CDISCSynonym>AVL01-List A Recall 2 Word 8</CDISCSynonym><CDISCDefinition>Auditory Verbal Learning Test Version A - List A, Recall 2, Word 8.</CDISCDefinition><PreferredTerm>ADNI AVLT - List A Recall 2 Word 8</PreferredTerm></EnumeratedItem><EnumeratedItem CodedValue="AVL01026" nciodm:ExtCodeID="C101921"><CDISCSynonym>AVL01-List A Recall 2 Word 9</CDISCSynonym><CDISCDefinition>Auditory Verbal Learning Test Version A - List A, Recall 2, Word 9.</CDISCDefinition><PreferredTerm>ADNI AVLT - List A Recall 2 Word 9</PreferredTerm></EnumeratedItem><EnumeratedItem CodedValue="AVL01027" nciodm:ExtCodeID="C101922"><CDISCSynonym>AVL01-List A Recall 2 Word 10</CDISCSynonym><CDISCDefinition>Auditory Verbal Learning Test Version A - List A, Recall 2, Word 10.</CDISCDefinition><PreferredTerm>ADNI AVLT - List A Recall 2 Word 10</PreferredTerm></EnumeratedItem><EnumeratedItem CodedValue="AVL01028" nciodm:ExtCodeID="C101923"><CDISCSynonym>AVL01-List A Recall 2 Word 11</CDISCSynonym><CDISCDefinition>Auditory Verbal Learning Test Version A - List A, Recall 2, Word 11.</CDISCDefinition><PreferredTerm>ADNI AVLT - List A Recall 2 Word 11</PreferredTerm></EnumeratedItem><EnumeratedItem CodedValue="AVL01029" nciodm:ExtCodeID="C101924"><CDISCSynonym>AVL01-List A Recall 2 Word 12</CDISCSynonym><CDISCDefinition>Auditory Verbal Learning Test Version A - List A, Recall 2, Word 12.</CDISCDefinition><PreferredTerm>ADNI AVLT - List A Recall 2 Word 12</PreferredTerm></EnumeratedItem><EnumeratedItem CodedValue="AVL01030" nciodm:ExtCodeID="C101925"><CDISCSynonym>AVL01-List A Recall 2 Word 13</CDISCSynonym><CDISCDefinition>Auditory Verbal Learning Test Version A - List A, Recall 2, Word 13.</CDISCDefinition><PreferredTerm>ADNI AVLT - List A Recall 2 Word 13</PreferredTerm></EnumeratedItem><EnumeratedItem CodedValue="AVL01031" nciodm:ExtCodeID="C101926"><CDISCSynonym>AVL01-List A Recall 2 Word 14</CDISCSynonym><CDISCDefinition>Auditory Verbal Learning Test Version A - List A, Recall 2, Word 14.</CDISCDefinition><PreferredTerm>ADNI AVLT - List A Recall 2 Word 14</PreferredTerm></EnumeratedItem><EnumeratedItem CodedValue="AVL01032" nciodm:ExtCodeID="C101927"><CDISCSynonym>AVL01-List A Recall 2 Word 15</CDISCSynonym><CDISCDefinition>Auditory Verbal Learning Test Version A - List A, Recall 2, Word 15.</CDISCDefinition><PreferredTerm>ADNI AVLT - List A Recall 2 Word 15</PreferredTerm></EnumeratedItem><EnumeratedItem CodedValue="AVL01033" nciodm:ExtCodeID="C101928"><CDISCSynonym>AVL01-List A Recall 2 Total</CDISCSynonym><CDISCDefinition>Auditory Verbal Learning Test Version A - The number of words recalled from List A, second attempt.</CDISCDefinition><PreferredTerm>ADNI AVLT - List A Recall 2 Total</PreferredTerm></EnumeratedItem><EnumeratedItem CodedValue="AVL01034" nciodm:ExtCodeID="C101929"><CDISCSynonym>AVL01-List A Intrusions 2</CDISCSynonym><CDISCDefinition>Auditory Verbal Learning Test Version A - The number of intrusions while recalling List A, second attempt.</CDISCDefinition><PreferredTerm>ADNI AVLT - List A Intrusions 2</PreferredTerm></EnumeratedItem><EnumeratedItem CodedValue="AVL01035" nciodm:ExtCodeID="C101930"><CDISCSynonym>AVL01-List A Recall 3 Word 1</CDISCSynonym><CDISCDefinition>Auditory Verbal Learning Test Version A - List A, Recall 3, Word 1.</CDISCDefinition><PreferredTerm>ADNI AVLT - List A Recall 3 Word 1</PreferredTerm></EnumeratedItem><EnumeratedItem CodedValue="AVL01036" nciodm:ExtCodeID="C101931"><CDISCSynonym>AVL01-List A Recall 3 Word 2</CDISCSynonym><CDISCDefinition>Auditory Verbal Learning Test Version A - List A, Recall 3, Word 2.</CDISCDefinition><PreferredTerm>ADNI AVLT - List A Recall 3 Word 2</PreferredTerm></EnumeratedItem><EnumeratedItem CodedValue="AVL01037" nciodm:ExtCodeID="C101932"><CDISCSynonym>AVL01-List A Recall 3 Word 3</CDISCSynonym><CDISCDefinition>Auditory Verbal Learning Test Version A - List A, Recall 3, Word 3.</CDISCDefinition><PreferredTerm>ADNI AVLT - List A Recall 3 Word 3</PreferredTerm></EnumeratedItem><EnumeratedItem CodedValue="AVL01038" nciodm:ExtCodeID="C101933"><CDISCSynonym>AVL01-List A Recall 3 Word 4</CDISCSynonym><CDISCDefinition>Auditory Verbal Learning Test Version A - List A, Recall 3, Word 4.</CDISCDefinition><PreferredTerm>ADNI AVLT - List A Recall 3 Word 4</PreferredTerm></EnumeratedItem><EnumeratedItem CodedValue="AVL01039" nciodm:ExtCodeID="C101934"><CDISCSynonym>AVL01-List A Recall 3 Word 5</CDISCSynonym><CDISCDefinition>Auditory Verbal Learning Test Version A - List A, Recall 3, Word 5.</CDISCDefinition><PreferredTerm>ADNI AVLT - List A Recall 3 Word 5</PreferredTerm></EnumeratedItem><EnumeratedItem CodedValue="AVL01040" nciodm:ExtCodeID="C101935"><CDISCSynonym>AVL01-List A Recall 3 Word 6</CDISCSynonym><CDISCDefinition>Auditory Verbal Learning Test Version A - List A, Recall 3, Word 6.</CDISCDefinition><PreferredTerm>ADNI AVLT - List A Recall 3 Word 6</PreferredTerm></EnumeratedItem><EnumeratedItem CodedValue="AVL01041" nciodm:ExtCodeID="C101936"><CDISCSynonym>AVL01-List A Recall 3 Word 7</CDISCSynonym><CDISCDefinition>Auditory Verbal Learning Test Version A - List A, Recall 3, Word 7.</CDISCDefinition><PreferredTerm>ADNI AVLT - List A Recall 3 Word 7</PreferredTerm></EnumeratedItem><EnumeratedItem CodedValue="AVL01042" nciodm:ExtCodeID="C101937"><CDISCSynonym>AVL01-List A Recall 3 Word 8</CDISCSynonym><CDISCDefinition>Auditory Verbal Learning Test Version A - List A, Recall 3, Word 8.</CDISCDefinition><PreferredTerm>ADNI AVLT - List A Recall 3 Word 8</PreferredTerm></EnumeratedItem><EnumeratedItem CodedValue="AVL01043" nciodm:ExtCodeID="C101938"><CDISCSynonym>AVL01-List A Recall 3 Word 9</CDISCSynonym><CDISCDefinition>Auditory Verbal Learning Test Version A - List A, Recall 3, Word 9.</CDISCDefinition><PreferredTerm>ADNI AVLT - List A Recall 3 Word 9</PreferredTerm></EnumeratedItem><EnumeratedItem CodedValue="AVL01044" nciodm:ExtCodeID="C101939"><CDISCSynonym>AVL01-List A Recall 3 Word 10</CDISCSynonym><CDISCDefinition>Auditory Verbal Learning Test Version A - List A, Recall 3, Word 10.</CDISCDefinition><PreferredTerm>ADNI AVLT - List A Recall 3 Word 10</PreferredTerm></EnumeratedItem><EnumeratedItem CodedValue="AVL01045" nciodm:ExtCodeID="C101940"><CDISCSynonym>AVL01-List A Recall 3 Word 11</CDISCSynonym><CDISCDefinition>Auditory Verbal Learning Test Version A - List A, Recall 3, Word 11.</CDISCDefinition><PreferredTerm>ADNI AVLT - List A Recall 3 Word 11</PreferredTerm></EnumeratedItem><EnumeratedItem CodedValue="AVL01046" nciodm:ExtCodeID="C101941"><CDISCSynonym>AVL01-List A Recall 3 Word 12</CDISCSynonym><CDISCDefinition>Auditory Verbal Learning Test Version A - List A, Recall 3, Word 12.</CDISCDefinition><PreferredTerm>ADNI AVLT - List A Recall 3 Word 12</PreferredTerm></EnumeratedItem><EnumeratedItem CodedValue="AVL01047" nciodm:ExtCodeID="C101942"><CDISCSynonym>AVL01-List A Recall 3 Word 13</CDISCSynonym><CDISCDefinition>Auditory Verbal Learning Test Version A - List A, Recall 3, Word 13.</CDISCDefinition><PreferredTerm>ADNI AVLT - List A Recall 3 Word 13</PreferredTerm></EnumeratedItem><EnumeratedItem CodedValue="AVL01048" nciodm:ExtCodeID="C101943"><CDISCSynonym>AVL01-List A Recall 3 Word 14</CDISCSynonym><CDISCDefinition>Auditory Verbal Learning Test Version A - List A, Recall 3, Word 14.</CDISCDefinition><PreferredTerm>ADNI AVLT - List A Recall 3 Word 14</PreferredTerm></EnumeratedItem><EnumeratedItem CodedValue="AVL01049" nciodm:ExtCodeID="C101944"><CDISCSynonym>AVL01-List A Recall 3 Word 15</CDISCSynonym><CDISCDefinition>Auditory Verbal Learning Test Version A - List A, Recall 3, Word 15.</CDISCDefinition><PreferredTerm>ADNI AVLT - List A Recall 3 Word 15</PreferredTerm></EnumeratedItem><EnumeratedItem CodedValue="AVL01050" nciodm:ExtCodeID="C101945"><CDISCSynonym>AVL01-List A Recall 3 Total</CDISCSynonym><CDISCDefinition>Auditory Verbal Learning Test Version A - The number of words recalled from List A, third attempt.</CDISCDefinition><PreferredTerm>ADNI AVLT - List A Recall 3 Total</PreferredTerm></EnumeratedItem><EnumeratedItem CodedValue="AVL01051" nciodm:ExtCodeID="C101946"><CDISCSynonym>AVL01-List A Intrusions 3</CDISCSynonym><CDISCDefinition>Auditory Verbal Learning Test Version A - The number of intrusions while recalling List A, third attempt.</CDISCDefinition><PreferredTerm>ADNI AVLT - List A Intrusions 3</PreferredTerm></EnumeratedItem><EnumeratedItem CodedValue="AVL01052" nciodm:ExtCodeID="C101947"><CDISCSynonym>AVL01-List A Recall 4 Word 1</CDISCSynonym><CDISCDefinition>Auditory Verbal Learning Test Version A - List A, Recall 4, Word 1.</CDISCDefinition><PreferredTerm>ADNI AVLT - List A Recall 4 Word 1</PreferredTerm></EnumeratedItem><EnumeratedItem CodedValue="AVL01053" nciodm:ExtCodeID="C101948"><CDISCSynonym>AVL01-List A Recall 4 Word 2</CDISCSynonym><CDISCDefinition>Auditory Verbal Learning Test Version A - List A, Recall 4, Word 2.</CDISCDefinition><PreferredTerm>ADNI AVLT - List A Recall 4 Word 2</PreferredTerm></EnumeratedItem><EnumeratedItem CodedValue="AVL01054" nciodm:ExtCodeID="C101949"><CDISCSynonym>AVL01-List A Recall 4 Word 3</CDISCSynonym><CDISCDefinition>Auditory Verbal Learning Test Version A - List A, Recall 4, Word 3.</CDISCDefinition><PreferredTerm>ADNI AVLT - List A Recall 4 Word 3</PreferredTerm></EnumeratedItem><EnumeratedItem CodedValue="AVL01055" nciodm:ExtCodeID="C101950"><CDISCSynonym>AVL01-List A Recall 4 Word 4</CDISCSynonym><CDISCDefinition>Auditory Verbal Learning Test Version A - List A, Recall 4, Word 4.</CDISCDefinition><PreferredTerm>ADNI AVLT - List A Recall 4 Word 4</PreferredTerm></EnumeratedItem><EnumeratedItem CodedValue="AVL01056" nciodm:ExtCodeID="C101951"><CDISCSynonym>AVL01-List A Recall 4 Word 5</CDISCSynonym><CDISCDefinition>Auditory Verbal Learning Test Version A - List A, Recall 4, Word 5.</CDISCDefinition><PreferredTerm>ADNI AVLT - List A Recall 4 Word 5</PreferredTerm></EnumeratedItem><EnumeratedItem CodedValue="AVL01057" nciodm:ExtCodeID="C101952"><CDISCSynonym>AVL01-List A Recall 4 Word 6</CDISCSynonym><CDISCDefinition>Auditory Verbal Learning Test Version A - List A, Recall 4, Word 6.</CDISCDefinition><PreferredTerm>ADNI AVLT - List A Recall 4 Word 6</PreferredTerm></EnumeratedItem><EnumeratedItem CodedValue="AVL01058" nciodm:ExtCodeID="C101953"><CDISCSynonym>AVL01-List A Recall 4 Word 7</CDISCSynonym><CDISCDefinition>Auditory Verbal Learning Test Version A - List A, Recall 4, Word 7.</CDISCDefinition><PreferredTerm>ADNI AVLT - List A Recall 4 Word 7</PreferredTerm></EnumeratedItem><EnumeratedItem CodedValue="AVL01059" nciodm:ExtCodeID="C101954"><CDISCSynonym>AVL01-List A Recall 4 Word 8</CDISCSynonym><CDISCDefinition>Auditory Verbal Learning Test Version A - List A, Recall 4, Word 8.</CDISCDefinition><PreferredTerm>ADNI AVLT - List A Recall 4 Word 8</PreferredTerm></EnumeratedItem><EnumeratedItem CodedValue="AVL01060" nciodm:ExtCodeID="C101955"><CDISCSynonym>AVL01-List A Recall 4 Word 9</CDISCSynonym><CDISCDefinition>Auditory Verbal Learning Test Version A - List A, Recall 4, Word 9.</CDISCDefinition><PreferredTerm>ADNI AVLT - List A Recall 4 Word 9</PreferredTerm></EnumeratedItem><EnumeratedItem CodedValue="AVL01061" nciodm:ExtCodeID="C101956"><CDISCSynonym>AVL01-List A Recall 4 Word 10</CDISCSynonym><CDISCDefinition>Auditory Verbal Learning Test Version A - List A, Recall 4, Word 10.</CDISCDefinition><PreferredTerm>ADNI AVLT - List A Recall 4 Word 10</PreferredTerm></EnumeratedItem><EnumeratedItem CodedValue="AVL01062" nciodm:ExtCodeID="C101957"><CDISCSynonym>AVL01-List A Recall 4 Word 11</CDISCSynonym><CDISCDefinition>Auditory Verbal Learning Test Version A - List A, Recall 4, Word 11.</CDISCDefinition><PreferredTerm>ADNI AVLT - List A Recall 4 Word 11</PreferredTerm></EnumeratedItem><EnumeratedItem CodedValue="AVL01063" nciodm:ExtCodeID="C101958"><CDISCSynonym>AVL01-List A Recall 4 Word 12</CDISCSynonym><CDISCDefinition>Auditory Verbal Learning Test Version A - List A, Recall 4, Word 12.</CDISCDefinition><PreferredTerm>ADNI AVLT - List A Recall 4 Word 12</PreferredTerm></EnumeratedItem><EnumeratedItem CodedValue="AVL01064" nciodm:ExtCodeID="C101959"><CDISCSynonym>AVL01-List A Recall 4 Word 13</CDISCSynonym><CDISCDefinition>Auditory Verbal Learning Test Version A - List A, Recall 4, Word 13.</CDISCDefinition><PreferredTerm>ADNI AVLT - List A Recall 4 Word 13</PreferredTerm></EnumeratedItem><EnumeratedItem CodedValue="AVL01065" nciodm:ExtCodeID="C101960"><CDISCSynonym>AVL01-List A Recall 4 Word 14</CDISCSynonym><CDISCDefinition>Auditory Verbal Learning Test Version A - List A, Recall 4, Word 14.</CDISCDefinition><PreferredTerm>ADNI AVLT - List A Recall 4 Word 14</PreferredTerm></EnumeratedItem><EnumeratedItem CodedValue="AVL01066" nciodm:ExtCodeID="C101961"><CDISCSynonym>AVL01-List A Recall 4 Word 15</CDISCSynonym><CDISCDefinition>Auditory Verbal Learning Test Version A - List A, Recall 4, Word 15.</CDISCDefinition><PreferredTerm>ADNI AVLT - List A Recall 4 Word 15</PreferredTerm></EnumeratedItem><EnumeratedItem CodedValue="AVL01067" nciodm:ExtCodeID="C101962"><CDISCSynonym>AVL01-List A Recall 4 Total</CDISCSynonym><CDISCDefinition>Auditory Verbal Learning Test Version A - The number of words recalled from List A, fourth attempt.</CDISCDefinition><PreferredTerm>ADNI AVLT - List A Recall 4 Total</PreferredTerm></EnumeratedItem><EnumeratedItem CodedValue="AVL01068" nciodm:ExtCodeID="C101963"><CDISCSynonym>AVL01-List A Intrusions 4</CDISCSynonym><CDISCDefinition>Auditory Verbal Learning Test Version A - The number of intrusions while recalling List A, fourth attempt.</CDISCDefinition><PreferredTerm>ADNI AVLT - List A Intrusions 4</PreferredTerm></EnumeratedItem><EnumeratedItem CodedValue="AVL01069" nciodm:ExtCodeID="C101964"><CDISCSynonym>AVL01-List A Recall 5 Word 1</CDISCSynonym><CDISCDefinition>Auditory Verbal Learning Test Version A - List A, Recall 5, Word 1.</CDISCDefinition><PreferredTerm>ADNI AVLT - List A Recall 5 Word 1</PreferredTerm></EnumeratedItem><EnumeratedItem CodedValue="AVL01070" nciodm:ExtCodeID="C101965"><CDISCSynonym>AVL01-List A Recall 5 Word 2</CDISCSynonym><CDISCDefinition>Auditory Verbal Learning Test Version A - List A, Recall 5, Word 2.</CDISCDefinition><PreferredTerm>ADNI AVLT - List A Recall 5 Word 2</PreferredTerm></EnumeratedItem><EnumeratedItem CodedValue="AVL01071" nciodm:ExtCodeID="C101966"><CDISCSynonym>AVL01-List A Recall 5 Word 3</CDISCSynonym><CDISCDefinition>Auditory Verbal Learning Test Version A - List A, Recall 5, Word 3.</CDISCDefinition><PreferredTerm>ADNI AVLT - List A Recall 5 Word 3</PreferredTerm></EnumeratedItem><EnumeratedItem CodedValue="AVL01072" nciodm:ExtCodeID="C101967"><CDISCSynonym>AVL01-List A Recall 5 Word 4</CDISCSynonym><CDISCDefinition>Auditory Verbal Learning Test Version A - List A, Recall 5, Word 4.</CDISCDefinition><PreferredTerm>ADNI AVLT - List A Recall 5 Word 4</PreferredTerm></EnumeratedItem><EnumeratedItem CodedValue="AVL01073" nciodm:ExtCodeID="C101968"><CDISCSynonym>AVL01-List A Recall 5 Word 5</CDISCSynonym><CDISCDefinition>Auditory Verbal Learning Test Version A - List A, Recall 5, Word 5.</CDISCDefinition><PreferredTerm>ADNI AVLT - List A Recall 5 Word 5</PreferredTerm></EnumeratedItem><EnumeratedItem CodedValue="AVL01074" nciodm:ExtCodeID="C101969"><CDISCSynonym>AVL01-List A Recall 5 Word 6</CDISCSynonym><CDISCDefinition>Auditory Verbal Learning Test Version A - List A, Recall 5, Word 6.</CDISCDefinition><PreferredTerm>ADNI AVLT - List A Recall 5 Word 6</PreferredTerm></EnumeratedItem><EnumeratedItem CodedValue="AVL01075" nciodm:ExtCodeID="C101970"><CDISCSynonym>AVL01-List A Recall 5 Word 7</CDISCSynonym><CDISCDefinition>Auditory Verbal Learning Test Version A - List A, Recall 5, Word 7.</CDISCDefinition><PreferredTerm>ADNI AVLT - List A Recall 5 Word 7</PreferredTerm></EnumeratedItem><EnumeratedItem CodedValue="AVL01076" nciodm:ExtCodeID="C101971"><CDISCSynonym>AVL01-List A Recall 5 Word 8</CDISCSynonym><CDISCDefinition>Auditory Verbal Learning Test Version A - List A, Recall 5, Word 8.</CDISCDefinition><PreferredTerm>ADNI AVLT - List A Recall 5 Word 8</PreferredTerm></EnumeratedItem><EnumeratedItem CodedValue="AVL01077" nciodm:ExtCodeID="C101972"><CDISCSynonym>AVL01-List A Recall 5 Word 9</CDISCSynonym><CDISCDefinition>Auditory Verbal Learning Test Version A - List A, Recall 5, Word 9.</CDISCDefinition><PreferredTerm>ADNI AVLT - List A Recall 5 Word 9</PreferredTerm></EnumeratedItem><EnumeratedItem CodedValue="AVL01078" nciodm:ExtCodeID="C101973"><CDISCSynonym>AVL01-List A Recall 5 Word 10</CDISCSynonym><CDISCDefinition>Auditory Verbal Learning Test Version A - List A, Recall 5, Word 10.</CDISCDefinition><PreferredTerm>ADNI AVLT - List A Recall 5 Word 10</PreferredTerm></EnumeratedItem><EnumeratedItem CodedValue="AVL01079" nciodm:ExtCodeID="C101974"><CDISCSynonym>AVL01-List A Recall 5 Word 11</CDISCSynonym><CDISCDefinition>Auditory Verbal Learning Test Version A - List A, Recall 5, Word 11.</CDISCDefinition><PreferredTerm>ADNI AVLT - List A Recall 5 Word 11</PreferredTerm></EnumeratedItem><EnumeratedItem CodedValue="AVL01080" nciodm:ExtCodeID="C101975"><CDISCSynonym>AVL01-List A Recall 5 Word 12</CDISCSynonym><CDISCDefinition>Auditory Verbal Learning Test Version A - List A, Recall 5, Word 12.</CDISCDefinition><PreferredTerm>ADNI AVLT - List A Recall 5 Word 12</PreferredTerm></EnumeratedItem><EnumeratedItem CodedValue="AVL01081" nciodm:ExtCodeID="C101976"><CDISCSynonym>AVL01-List A Recall 5 Word 13</CDISCSynonym><CDISCDefinition>Auditory Verbal Learning Test Version A - List A, Recall 5, Word 13.</CDISCDefinition><PreferredTerm>ADNI AVLT - List A Recall 5 Word 13</PreferredTerm></EnumeratedItem><EnumeratedItem CodedValue="AVL01082" nciodm:ExtCodeID="C101977"><CDISCSynonym>AVL01-List A Recall 5 Word 14</CDISCSynonym><CDISCDefinition>Auditory Verbal Learning Test Version A - List A, Recall 5, Word 14.</CDISCDefinition><PreferredTerm>ADNI AVLT - List A Recall 5 Word 14</PreferredTerm></EnumeratedItem><EnumeratedItem CodedValue="AVL01083" nciodm:ExtCodeID="C101978"><CDISCSynonym>AVL01-List A Recall 5 Word 15</CDISCSynonym><CDISCDefinition>Auditory Verbal Learning Test Version A - List A, Recall 5, Word 15.</CDISCDefinition><PreferredTerm>ADNI AVLT - List A Recall 5 Word 15</PreferredTerm></EnumeratedItem><EnumeratedItem CodedValue="AVL01084" nciodm:ExtCodeID="C101979"><CDISCSynonym>AVL01-List A Recall 5 Total</CDISCSynonym><CDISCDefinition>Auditory Verbal Learning Test Version A - The number of words recalled from List A, fifth attempt.</CDISCDefinition><PreferredTerm>ADNI AVLT - List A Recall 5 Total</PreferredTerm></EnumeratedItem><EnumeratedItem CodedValue="AVL01085" nciodm:ExtCodeID="C101980"><CDISCSynonym>AVL01-List A Intrusions 5</CDISCSynonym><CDISCDefinition>Auditory Verbal Learning Test Version A - The number of intrusions while recalling List A, fifth attempt.</CDISCDefinition><PreferredTerm>ADNI AVLT - List A Intrusions 5</PreferredTerm></EnumeratedItem><EnumeratedItem CodedValue="AVL01086" nciodm:ExtCodeID="C101981"><CDISCSynonym>AVL01-List A Recall 6 (After B) Word 1</CDISCSynonym><CDISCDefinition>Auditory Verbal Learning Test Version A - List A, Recall 6 (after B Recall), Word 1.</CDISCDefinition><PreferredTerm>ADNI AVLT - List A Recall 6 (After B) Word 1</PreferredTerm></EnumeratedItem><EnumeratedItem CodedValue="AVL01087" nciodm:ExtCodeID="C101982"><CDISCSynonym>AVL01-List A Recall 6 (After B) Word 2</CDISCSynonym><CDISCDefinition>Auditory Verbal Learning Test Version A - List A, Recall 6 (after B Recall), Word 2.</CDISCDefinition><PreferredTerm>ADNI AVLT - List A Recall 6 (After B) Word 2</PreferredTerm></EnumeratedItem><EnumeratedItem CodedValue="AVL01088" nciodm:ExtCodeID="C101983"><CDISCSynonym>AVL01-List A Recall 6 (After B) Word 3</CDISCSynonym><CDISCDefinition>Auditory Verbal Learning Test Version A - List A, Recall 6 (after B Recall), Word 3.</CDISCDefinition><PreferredTerm>ADNI AVLT - List A Recall 6 (After B) Word 3</PreferredTerm></EnumeratedItem><EnumeratedItem CodedValue="AVL01089" nciodm:ExtCodeID="C101984"><CDISCSynonym>AVL01-List A Recall 6 (After B) Word 4</CDISCSynonym><CDISCDefinition>Auditory Verbal Learning Test Version A - List A, Recall 6 (after B Recall), Word 4.</CDISCDefinition><PreferredTerm>ADNI AVLT - List A Recall 6 (After B) Word 4</PreferredTerm></EnumeratedItem><EnumeratedItem CodedValue="AVL01090" nciodm:ExtCodeID="C101985"><CDISCSynonym>AVL01-List A Recall 6 (After B) Word 5</CDISCSynonym><CDISCDefinition>Auditory Verbal Learning Test Version A - List A, Recall 6 (after B Recall), Word 5.</CDISCDefinition><PreferredTerm>ADNI AVLT - List A Recall 6 (After B) Word 5</PreferredTerm></EnumeratedItem><EnumeratedItem CodedValue="AVL01091" nciodm:ExtCodeID="C101986"><CDISCSynonym>AVL01-List A Recall 6 (After B) Word 6</CDISCSynonym><CDISCDefinition>Auditory Verbal Learning Test Version A - List A, Recall 6 (after B Recall), Word 6.</CDISCDefinition><PreferredTerm>ADNI AVLT - List A Recall 6 (After B) Word 6</PreferredTerm></EnumeratedItem><EnumeratedItem CodedValue="AVL01092" nciodm:ExtCodeID="C101987"><CDISCSynonym>AVL01-List A Recall 6 (After B) Word 7</CDISCSynonym><CDISCDefinition>Auditory Verbal Learning Test Version A - List A, Recall 6 (after B Recall), Word 7.</CDISCDefinition><PreferredTerm>ADNI AVLT - List A Recall 6 (After B) Word 7</PreferredTerm></EnumeratedItem><EnumeratedItem CodedValue="AVL01093" nciodm:ExtCodeID="C101988"><CDISCSynonym>AVL01-List A Recall 6 (After B) Word 8</CDISCSynonym><CDISCDefinition>Auditory Verbal Learning Test Version A - List A, Recall 6 (after B Recall), Word 8.</CDISCDefinition><PreferredTerm>ADNI AVLT - List A Recall 6 (After B) Word 8</PreferredTerm></EnumeratedItem><EnumeratedItem CodedValue="AVL01094" nciodm:ExtCodeID="C101989"><CDISCSynonym>AVL01-List A Recall 6 (After B) Word 9</CDISCSynonym><CDISCDefinition>Auditory Verbal Learning Test Version A - List A, Recall 6 (after B Recall), Word 9.</CDISCDefinition><PreferredTerm>ADNI AVLT - List A Recall 6 (After B) Word 9</PreferredTerm></EnumeratedItem><EnumeratedItem CodedValue="AVL01095" nciodm:ExtCodeID="C101990"><CDISCSynonym>AVL01-List A Recall 6 (After B) Word 10</CDISCSynonym><CDISCDefinition>Auditory Verbal Learning Test Version A - List A, Recall 6 (after B Recall), Word 10.</CDISCDefinition><PreferredTerm>ADNI AVLT - List A Recall 6 (After B) Word 10</PreferredTerm></EnumeratedItem><EnumeratedItem CodedValue="AVL01096" nciodm:ExtCodeID="C101991"><CDISCSynonym>AVL01-List A Recall 6 (After B) Word 11</CDISCSynonym><CDISCDefinition>Auditory Verbal Learning Test Version A - List A, Recall 6 (after B Recall), Word 11.</CDISCDefinition><PreferredTerm>ADNI AVLT - List A Recall 6 (After B) Word 11</PreferredTerm></EnumeratedItem><EnumeratedItem CodedValue="AVL01097" nciodm:ExtCodeID="C101992"><CDISCSynonym>AVL01-List A Recall 6 (After B) Word 12</CDISCSynonym><CDISCDefinition>Auditory Verbal Learning Test Version A - List A, Recall 6 (after B Recall), Word 12.</CDISCDefinition><PreferredTerm>ADNI AVLT - List A Recall 6 (After B) Word 12</PreferredTerm></EnumeratedItem><EnumeratedItem CodedValue="AVL01098" nciodm:ExtCodeID="C101993"><CDISCSynonym>AVL01-List A Recall 6 (After B) Word 13</CDISCSynonym><CDISCDefinition>Auditory Verbal Learning Test Version A - List A, Recall 6 (after B Recall), Word 13.</CDISCDefinition><PreferredTerm>ADNI AVLT - List A Recall 6 (After B) Word 13</PreferredTerm></EnumeratedItem><EnumeratedItem CodedValue="AVL01099" nciodm:ExtCodeID="C101994"><CDISCSynonym>AVL01-List A Recall 6 (After B) Word 14</CDISCSynonym><CDISCDefinition>Auditory Verbal Learning Test Version A - List A, Recall 6 (after B Recall), Word 14.</CDISCDefinition><PreferredTerm>ADNI AVLT - List A Recall 6 (After B) Word 14</PreferredTerm></EnumeratedItem><EnumeratedItem CodedValue="AVL01100" nciodm:ExtCodeID="C101995"><CDISCSynonym>AVL01-List A Recall 6 (After B) Word 15</CDISCSynonym><CDISCDefinition>Auditory Verbal Learning Test Version A - List A, Recall 6 (after B Recall), Word 15.</CDISCDefinition><PreferredTerm>ADNI AVLT - List A Recall 6 (After B) Word 15</PreferredTerm></EnumeratedItem><EnumeratedItem CodedValue="AVL01101" nciodm:ExtCodeID="C101996"><CDISCSynonym>AVL01-List A Recall 6 (After B) Total</CDISCSynonym><CDISCDefinition>Auditory Verbal Learning Test Version A - The number of words recalled from List A, sixth attempt (after List B recall).</CDISCDefinition><PreferredTerm>ADNI AVLT - List A Recall 6 (After B) Total</PreferredTerm></EnumeratedItem><EnumeratedItem CodedValue="AVL01102" nciodm:ExtCodeID="C101997"><CDISCSynonym>AVL01-List A Intrusions 6</CDISCSynonym><CDISCDefinition>Auditory Verbal Learning Test Version A - The number of intrusions while recalling List A, sixth attempt (after List B recall).</CDISCDefinition><PreferredTerm>ADNI AVLT - List A Intrusions 6</PreferredTerm></EnumeratedItem><EnumeratedItem CodedValue="AVL01103" nciodm:ExtCodeID="C101998"><CDISCSynonym>AVL01-List B Recall Word 1</CDISCSynonym><CDISCDefinition>Auditory Verbal Learning Test Version A - List B, Word 1.</CDISCDefinition><PreferredTerm>ADNI AVLT - List B Recall Word 1</PreferredTerm></EnumeratedItem><EnumeratedItem CodedValue="AVL01104" nciodm:ExtCodeID="C101999"><CDISCSynonym>AVL01-List B Recall Word 2</CDISCSynonym><CDISCDefinition>Auditory Verbal Learning Test Version A - List B, Word 2.</CDISCDefinition><PreferredTerm>ADNI AVLT - List B Recall Word 2</PreferredTerm></EnumeratedItem><EnumeratedItem CodedValue="AVL01105" nciodm:ExtCodeID="C102000"><CDISCSynonym>AVL01-List B Recall Word 3</CDISCSynonym><CDISCDefinition>Auditory Verbal Learning Test Version A - List B, Word 3.</CDISCDefinition><PreferredTerm>ADNI AVLT - List B Recall Word 3</PreferredTerm></EnumeratedItem><EnumeratedItem CodedValue="AVL01106" nciodm:ExtCodeID="C102001"><CDISCSynonym>AVL01-List B Recall Word 4</CDISCSynonym><CDISCDefinition>Auditory Verbal Learning Test Version A - List B, Word 4.</CDISCDefinition><PreferredTerm>ADNI AVLT - List B Recall Word 4</PreferredTerm></EnumeratedItem><EnumeratedItem CodedValue="AVL01107" nciodm:ExtCodeID="C102002"><CDISCSynonym>AVL01-List B Recall Word 5</CDISCSynonym><CDISCDefinition>Auditory Verbal Learning Test Version A - List B, Word 5.</CDISCDefinition><PreferredTerm>ADNI AVLT - List B Recall Word 5</PreferredTerm></EnumeratedItem><EnumeratedItem CodedValue="AVL01108" nciodm:ExtCodeID="C102003"><CDISCSynonym>AVL01-List B Recall Word 6</CDISCSynonym><CDISCDefinition>Auditory Verbal Learning Test Version A - List B, Word 6.</CDISCDefinition><PreferredTerm>ADNI AVLT - List B Recall Word 6</PreferredTerm></EnumeratedItem><EnumeratedItem CodedValue="AVL01109" nciodm:ExtCodeID="C102004"><CDISCSynonym>AVL01-List B Recall Word 7</CDISCSynonym><CDISCDefinition>Auditory Verbal Learning Test Version A - List B, Word 7.</CDISCDefinition><PreferredTerm>ADNI AVLT - List B Recall Word 7</PreferredTerm></EnumeratedItem><EnumeratedItem CodedValue="AVL01110" nciodm:ExtCodeID="C102005"><CDISCSynonym>AVL01-List B Recall Word 8</CDISCSynonym><CDISCDefinition>Auditory Verbal Learning Test Version A - List B, Word 8.</CDISCDefinition><PreferredTerm>ADNI AVLT - List B Recall Word 8</PreferredTerm></EnumeratedItem><EnumeratedItem CodedValue="AVL01111" nciodm:ExtCodeID="C102006"><CDISCSynonym>AVL01-List B Recall Word 9</CDISCSynonym><CDISCDefinition>Auditory Verbal Learning Test Version A - List B, Word 9.</CDISCDefinition><PreferredTerm>ADNI AVLT - List B Recall Word 9</PreferredTerm></EnumeratedItem><EnumeratedItem CodedValue="AVL01112" nciodm:ExtCodeID="C102007"><CDISCSynonym>AVL01-List B Recall Word 10</CDISCSynonym><CDISCDefinition>Auditory Verbal Learning Test Version A - List B, Word 10.</CDISCDefinition><PreferredTerm>ADNI AVLT - List B Recall Word 10</PreferredTerm></EnumeratedItem><EnumeratedItem CodedValue="AVL01113" nciodm:ExtCodeID="C102008"><CDISCSynonym>AVL01-List B Recall Word 11</CDISCSynonym><CDISCDefinition>Auditory Verbal Learning Test Version A - List B, Word 11.</CDISCDefinition><PreferredTerm>ADNI AVLT - List B Recall Word 11</PreferredTerm></EnumeratedItem><EnumeratedItem CodedValue="AVL01114" nciodm:ExtCodeID="C102009"><CDISCSynonym>AVL01-List B Recall Word 12</CDISCSynonym><CDISCDefinition>Auditory Verbal Learning Test Version A - List B, Word 12.</CDISCDefinition><PreferredTerm>ADNI AVLT - List B Recall Word 12</PreferredTerm></EnumeratedItem><EnumeratedItem CodedValue="AVL01115" nciodm:ExtCodeID="C102010"><CDISCSynonym>AVL01-List B Recall Word 13</CDISCSynonym><CDISCDefinition>Auditory Verbal Learning Test Version A - List B, Word 13.</CDISCDefinition><PreferredTerm>ADNI AVLT - List B Recall Word 13</PreferredTerm></EnumeratedItem><EnumeratedItem CodedValue="AVL01116" nciodm:ExtCodeID="C102011"><CDISCSynonym>AVL01-List B Recall Word 14</CDISCSynonym><CDISCDefinition>Auditory Verbal Learning Test Version A - List B, Word 14.</CDISCDefinition><PreferredTerm>ADNI AVLT - List B Recall Word 14</PreferredTerm></EnumeratedItem><EnumeratedItem CodedValue="AVL01117" nciodm:ExtCodeID="C102012"><CDISCSynonym>AVL01-List B Recall Word 15</CDISCSynonym><CDISCDefinition>Auditory Verbal Learning Test Version A - List B, Word 15.</CDISCDefinition><PreferredTerm>ADNI AVLT - List B Recall Word 15</PreferredTerm></EnumeratedItem><EnumeratedItem CodedValue="AVL01118" nciodm:ExtCodeID="C102013"><CDISCSynonym>AVL01-List B Recall Total</CDISCSynonym><CDISCDefinition>Auditory Verbal Learning Test Version A - The number of words recalled from List B.</CDISCDefinition><PreferredTerm>ADNI AVLT - List B Recall Total</PreferredTerm></EnumeratedItem><EnumeratedItem CodedValue="AVL01119" nciodm:ExtCodeID="C102014"><CDISCSynonym>AVL01-List B Intrusions</CDISCSynonym><CDISCDefinition>Auditory Verbal Learning Test Version A - The number of intrusions while recalling List B.</CDISCDefinition><PreferredTerm>ADNI AVLT - List B Intrusions</PreferredTerm></EnumeratedItem><EnumeratedItem CodedValue="AVL01120" nciodm:ExtCodeID="C102015"><CDISCSynonym>AVL01-List A 30 Min Delay Recall Word 1</CDISCSynonym><CDISCDefinition>Auditory Verbal Learning Test Version A - List A, 30 Minute Delay Recall, Word 1.</CDISCDefinition><PreferredTerm>ADNI AVLT - List A 30 Min Delay Recall Word 1</PreferredTerm></EnumeratedItem><EnumeratedItem CodedValue="AVL01121" nciodm:ExtCodeID="C102016"><CDISCSynonym>AVL01-List A 30 Min Delay Recall Word 2</CDISCSynonym><CDISCDefinition>Auditory Verbal Learning Test Version A - List A, 30 Minute Delay Recall, Word 2.</CDISCDefinition><PreferredTerm>ADNI AVLT - List A 30 Min Delay Recall Word 2</PreferredTerm></EnumeratedItem><EnumeratedItem CodedValue="AVL01122" nciodm:ExtCodeID="C102017"><CDISCSynonym>AVL01-List A 30 Min Delay Recall Word 3</CDISCSynonym><CDISCDefinition>Auditory Verbal Learning Test Version A - List A, 30 Minute Delay Recall, Word 3.</CDISCDefinition><PreferredTerm>ADNI AVLT - List A 30 Min Delay Recall Word 3</PreferredTerm></EnumeratedItem><EnumeratedItem CodedValue="AVL01123" nciodm:ExtCodeID="C102018"><CDISCSynonym>AVL01-List A 30 Min Delay Recall Word 4</CDISCSynonym><CDISCDefinition>Auditory Verbal Learning Test Version A - List A, 30 Minute Delay Recall, Word 4.</CDISCDefinition><PreferredTerm>ADNI AVLT - List A 30 Min Delay Recall Word 4</PreferredTerm></EnumeratedItem><EnumeratedItem CodedValue="AVL01124" nciodm:ExtCodeID="C102019"><CDISCSynonym>AVL01-List A 30 Min Delay Recall Word 5</CDISCSynonym><CDISCDefinition>Auditory Verbal Learning Test Version A - List A, 30 Minute Delay Recall, Word 5.</CDISCDefinition><PreferredTerm>ADNI AVLT - List A 30 Min Delay Recall Word 5</PreferredTerm></EnumeratedItem><EnumeratedItem CodedValue="AVL01125" nciodm:ExtCodeID="C102020"><CDISCSynonym>AVL01-List A 30 Min Delay Recall Word 6</CDISCSynonym><CDISCDefinition>Auditory Verbal Learning Test Version A - List A, 30 Minute Delay Recall, Word 6.</CDISCDefinition><PreferredTerm>ADNI AVLT - List A 30 Min Delay Recall Word 6</PreferredTerm></EnumeratedItem><EnumeratedItem CodedValue="AVL01126" nciodm:ExtCodeID="C102021"><CDISCSynonym>AVL01-List A 30 Min Delay Recall Word 7</CDISCSynonym><CDISCDefinition>Auditory Verbal Learning Test Version A - List A, 30 Minute Delay Recall, Word 7.</CDISCDefinition><PreferredTerm>ADNI AVLT - List A 30 Min Delay Recall Word 7</PreferredTerm></EnumeratedItem><EnumeratedItem CodedValue="AVL01127" nciodm:ExtCodeID="C102022"><CDISCSynonym>AVL01-List A 30 Min Delay Recall Word 8</CDISCSynonym><CDISCDefinition>Auditory Verbal Learning Test Version A - List A, 30 Minute Delay Recall, Word 8.</CDISCDefinition><PreferredTerm>ADNI AVLT - List A 30 Min Delay Recall Word 8</PreferredTerm></EnumeratedItem><EnumeratedItem CodedValue="AVL01128" nciodm:ExtCodeID="C102023"><CDISCSynonym>AVL01-List A 30 Min Delay Recall Word 9</CDISCSynonym><CDISCDefinition>Auditory Verbal Learning Test Version A - List A, 30 Minute Delay Recall, Word 9.</CDISCDefinition><PreferredTerm>ADNI AVLT - List A 30 Min Delay Recall Word 9</PreferredTerm></EnumeratedItem><EnumeratedItem CodedValue="AVL01129" nciodm:ExtCodeID="C102024"><CDISCSynonym>AVL01-List A 30 Min Delay Recall Word 10</CDISCSynonym><CDISCDefinition>Auditory Verbal Learning Test Version A - List A, 30 Minute Delay Recall, Word 10.</CDISCDefinition><PreferredTerm>ADNI AVLT - List A 30 Min Delay Recall Word 10</PreferredTerm></EnumeratedItem><EnumeratedItem CodedValue="AVL01130" nciodm:ExtCodeID="C102025"><CDISCSynonym>AVL01-List A 30 Min Delay Recall Word 11</CDISCSynonym><CDISCDefinition>Auditory Verbal Learning Test Version A - List A, 30 Minute Delay Recall, Word 11.</CDISCDefinition><PreferredTerm>ADNI AVLT - List A 30 Min Delay Recall Word 11</PreferredTerm></EnumeratedItem><EnumeratedItem CodedValue="AVL01131" nciodm:ExtCodeID="C102026"><CDISCSynonym>AVL01-List A 30 Min Delay Recall Word 12</CDISCSynonym><CDISCDefinition>Auditory Verbal Learning Test Version A - List A, 30 Minute Delay Recall, Word 12.</CDISCDefinition><PreferredTerm>ADNI AVLT - List A 30 Min Delay Recall Word 12</PreferredTerm></EnumeratedItem><EnumeratedItem CodedValue="AVL01132" nciodm:ExtCodeID="C102027"><CDISCSynonym>AVL01-List A 30 Min Delay Recall Word 13</CDISCSynonym><CDISCDefinition>Auditory Verbal Learning Test Version A - List A, 30 Minute Delay Recall, Word 13.</CDISCDefinition><PreferredTerm>ADNI AVLT - List A 30 Min Delay Recall Word 13</PreferredTerm></EnumeratedItem><EnumeratedItem CodedValue="AVL01133" nciodm:ExtCodeID="C102028"><CDISCSynonym>AVL01-List A 30 Min Delay Recall Word 14</CDISCSynonym><CDISCDefinition>Auditory Verbal Learning Test Version A - List A, 30 Minute Delay Recall, Word 14.</CDISCDefinition><PreferredTerm>ADNI AVLT - List A 30 Min Delay Recall Word 14</PreferredTerm></EnumeratedItem><EnumeratedItem CodedValue="AVL01134" nciodm:ExtCodeID="C102029"><CDISCSynonym>AVL01-List A 30 Min Delay Recall Word 15</CDISCSynonym><CDISCDefinition>Auditory Verbal Learning Test Version A - List A, 30 Minute Delay Recall, Word 15.</CDISCDefinition><PreferredTerm>ADNI AVLT - List A 30 Min Delay Recall Word 15</PreferredTerm></EnumeratedItem><EnumeratedItem CodedValue="AVL01135" nciodm:ExtCodeID="C102030"><CDISCSynonym>AVL01-List A 30 Min Delay Recall Total</CDISCSynonym><CDISCDefinition>Auditory Verbal Learning Test Version A - The number of words recalled from List A, 30 Minute Delay recall.</CDISCDefinition><PreferredTerm>ADNI AVLT - List A 30 Min Delay Recall Total</PreferredTerm></EnumeratedItem><EnumeratedItem CodedValue="AVL01136" nciodm:ExtCodeID="C102031"><CDISCSynonym>AVL01-List A 30 Min Delay Intrusions</CDISCSynonym><CDISCDefinition>Auditory Verbal Learning Test Version A - The number of intrusions while recalling List A, 30 Minute Delay.</CDISCDefinition><PreferredTerm>ADNI AVLT - List A 30 Min Delay Intrusions</PreferredTerm></EnumeratedItem><EnumeratedItem CodedValue="AVL01137" nciodm:ExtCodeID="C102032"><CDISCSynonym>AVL01-List A Recognition Total</CDISCSynonym><CDISCDefinition>Auditory Verbal Learning Test Version A - The number of words correct on recognition test.</CDISCDefinition><PreferredTerm>ADNI AVLT - List A Recognition Total</PreferredTerm></EnumeratedItem><EnumeratedItem CodedValue="AVL01138" nciodm:ExtCodeID="C102033"><CDISCSynonym>AVL01-List A Recognition Intrusions</CDISCSynonym><CDISCDefinition>Auditory Verbal Learning Test Version A - The number of intrusions on recognition test.</CDISCDefinition><PreferredTerm>ADNI AVLT - List A Recognition Intrusions</PreferredTerm></EnumeratedItem><CDISCSubmissionValue>AVL01TC</CDISCSubmissionValue><CDISCSynonym>ADNI Auditory Verbal Learning Functional Test Test Code</CDISCSynonym><PreferredTerm>CDISC Functional Test ADNI AVLT Test Code Terminology</PreferredTerm></CodeList><CodeList OID="CL.C101808.AVL01TN" Name="ADNI Auditory Verbal Learning Functional Test Test Name" DataType="text" nciodm:ExtCodeID="C101808" nciodm:CodeListExtensible="No"><Description><TranslatedText xml:lang="en">ADNI AVLT test name.</TranslatedText></Description><EnumeratedItem CodedValue="AVL01-List A 30 Min Delay Intrusions" nciodm:ExtCodeID="C102031"><CDISCSynonym>AVL01-List A 30 Min Delay Intrusions</CDISCSynonym><CDISCDefinition>Auditory Verbal Learning Test Version A - The number of intrusions while recalling List A, 30 Minute Delay.</CDISCDefinition><PreferredTerm>ADNI AVLT - List A 30 Min Delay Intrusions</PreferredTerm></EnumeratedItem><EnumeratedItem CodedValue="AVL01-List A 30 Min Delay Recall Total" nciodm:ExtCodeID="C102030"><CDISCSynonym>AVL01-List A 30 Min Delay Recall Total</CDISCSynonym><CDISCDefinition>Auditory Verbal Learning Test Version A - The number of words recalled from List A, 30 Minute Delay recall.</CDISCDefinition><PreferredTerm>ADNI AVLT - List A 30 Min Delay Recall Total</PreferredTerm></EnumeratedItem><EnumeratedItem CodedValue="AVL01-List A 30 Min Delay Recall Word 1" nciodm:ExtCodeID="C102015"><CDISCSynonym>AVL01-List A 30 Min Delay Recall Word 1</CDISCSynonym><CDISCDefinition>Auditory Verbal Learning Test Version A - List A, 30 Minute Delay Recall, Word 1.</CDISCDefinition><PreferredTerm>ADNI AVLT - List A 30 Min Delay Recall Word 1</PreferredTerm></EnumeratedItem><EnumeratedItem CodedValue="AVL01-List A 30 Min Delay Recall Word 10" nciodm:ExtCodeID="C102024"><CDISCSynonym>AVL01-List A 30 Min Delay Recall Word 10</CDISCSynonym><CDISCDefinition>Auditory Verbal Learning Test Version A - List A, 30 Minute Delay Recall, Word 10.</CDISCDefinition><PreferredTerm>ADNI AVLT - List A 30 Min Delay Recall Word 10</PreferredTerm></EnumeratedItem><EnumeratedItem CodedValue="AVL01-List A 30 Min Delay Recall Word 11" nciodm:ExtCodeID="C102025"><CDISCSynonym>AVL01-List A 30 Min Delay Recall Word 11</CDISCSynonym><CDISCDefinition>Auditory Verbal Learning Test Version A - List A, 30 Minute Delay Recall, Word 11.</CDISCDefinition><PreferredTerm>ADNI AVLT - List A 30 Min Delay Recall Word 11</PreferredTerm></EnumeratedItem><EnumeratedItem CodedValue="AVL01-List A 30 Min Delay Recall Word 12" nciodm:ExtCodeID="C102026"><CDISCSynonym>AVL01-List A 30 Min Delay Recall Word 12</CDISCSynonym><CDISCDefinition>Auditory Verbal Learning Test Version A - List A, 30 Minute Delay Recall, Word 12.</CDISCDefinition><PreferredTerm>ADNI AVLT - List A 30 Min Delay Recall Word 12</PreferredTerm></EnumeratedItem><EnumeratedItem CodedValue="AVL01-List A 30 Min Delay Recall Word 13" nciodm:ExtCodeID="C102027"><CDISCSynonym>AVL01-List A 30 Min Delay Recall Word 13</CDISCSynonym><CDISCDefinition>Auditory Verbal Learning Test Version A - List A, 30 Minute Delay Recall, Word 13.</CDISCDefinition><PreferredTerm>ADNI AVLT - List A 30 Min Delay Recall Word 13</PreferredTerm></EnumeratedItem><EnumeratedItem CodedValue="AVL01-List A 30 Min Delay Recall Word 14" nciodm:ExtCodeID="C102028"><CDISCSynonym>AVL01-List A 30 Min Delay Recall Word 14</CDISCSynonym><CDISCDefinition>Auditory Verbal Learning Test Version A - List A, 30 Minute Delay Recall, Word 14.</CDISCDefinition><PreferredTerm>ADNI AVLT - List A 30 Min Delay Recall Word 14</PreferredTerm></EnumeratedItem><EnumeratedItem CodedValue="AVL01-List A 30 Min Delay Recall Word 15" nciodm:ExtCodeID="C102029"><CDISCSynonym>AVL01-List A 30 Min Delay Recall Word 15</CDISCSynonym><CDISCDefinition>Auditory Verbal Learning Test Version A - List A, 30 Minute Delay Recall, Word 15.</CDISCDefinition><PreferredTerm>ADNI AVLT - List A 30 Min Delay Recall Word 15</PreferredTerm></EnumeratedItem><EnumeratedItem CodedValue="AVL01-List A 30 Min Delay Recall Word 2" nciodm:ExtCodeID="C102016"><CDISCSynonym>AVL01-List A 30 Min Delay Recall Word 2</CDISCSynonym><CDISCDefinition>Auditory Verbal Learning Test Version A - List A, 30 Minute Delay Recall, Word 2.</CDISCDefinition><PreferredTerm>ADNI AVLT - List A 30 Min Delay Recall Word 2</PreferredTerm></EnumeratedItem><EnumeratedItem CodedValue="AVL01-List A 30 Min Delay Recall Word 3" nciodm:ExtCodeID="C102017"><CDISCSynonym>AVL01-List A 30 Min Delay Recall Word 3</CDISCSynonym><CDISCDefinition>Auditory Verbal Learning Test Version A - List A, 30 Minute Delay Recall, Word 3.</CDISCDefinition><PreferredTerm>ADNI AVLT - List A 30 Min Delay Recall Word 3</PreferredTerm></EnumeratedItem><EnumeratedItem CodedValue="AVL01-List A 30 Min Delay Recall Word 4" nciodm:ExtCodeID="C102018"><CDISCSynonym>AVL01-List A 30 Min Delay Recall Word 4</CDISCSynonym><CDISCDefinition>Auditory Verbal Learning Test Version A - List A, 30 Minute Delay Recall, Word 4.</CDISCDefinition><PreferredTerm>ADNI AVLT - List A 30 Min Delay Recall Word 4</PreferredTerm></EnumeratedItem><EnumeratedItem CodedValue="AVL01-List A 30 Min Delay Recall Word 5" nciodm:ExtCodeID="C102019"><CDISCSynonym>AVL01-List A 30 Min Delay Recall Word 5</CDISCSynonym><CDISCDefinition>Auditory Verbal Learning Test Version A - List A, 30 Minute Delay Recall, Word 5.</CDISCDefinition><PreferredTerm>ADNI AVLT - List A 30 Min Delay Recall Word 5</PreferredTerm></EnumeratedItem><EnumeratedItem CodedValue="AVL01-List A 30 Min Delay Recall Word 6" nciodm:ExtCodeID="C102020"><CDISCSynonym>AVL01-List A 30 Min Delay Recall Word 6</CDISCSynonym><CDISCDefinition>Auditory Verbal Learning Test Version A - List A, 30 Minute Delay Recall, Word 6.</CDISCDefinition><PreferredTerm>ADNI AVLT - List A 30 Min Delay Recall Word 6</PreferredTerm></EnumeratedItem><EnumeratedItem CodedValue="AVL01-List A 30 Min Delay Recall Word 7" nciodm:ExtCodeID="C102021"><CDISCSynonym>AVL01-List A 30 Min Delay Recall Word 7</CDISCSynonym><CDISCDefinition>Auditory Verbal Learning Test Version A - List A, 30 Minute Delay Recall, Word 7.</CDISCDefinition><PreferredTerm>ADNI AVLT - List A 30 Min Delay Recall Word 7</PreferredTerm></EnumeratedItem><EnumeratedItem CodedValue="AVL01-List A 30 Min Delay Recall Word 8" nciodm:ExtCodeID="C102022"><CDISCSynonym>AVL01-List A 30 Min Delay Recall Word 8</CDISCSynonym><CDISCDefinition>Auditory Verbal Learning Test Version A - List A, 30 Minute Delay Recall, Word 8.</CDISCDefinition><PreferredTerm>ADNI AVLT - List A 30 Min Delay Recall Word 8</PreferredTerm></EnumeratedItem><EnumeratedItem CodedValue="AVL01-List A 30 Min Delay Recall Word 9" nciodm:ExtCodeID="C102023"><CDISCSynonym>AVL01-List A 30 Min Delay Recall Word 9</CDISCSynonym><CDISCDefinition>Auditory Verbal Learning Test Version A - List A, 30 Minute Delay Recall, Word 9.</CDISCDefinition><PreferredTerm>ADNI AVLT - List A 30 Min Delay Recall Word 9</PreferredTerm></EnumeratedItem><EnumeratedItem CodedValue="AVL01-List A Intrusions 1" nciodm:ExtCodeID="C101912"><CDISCSynonym>AVL01-List A Intrusions 1</CDISCSynonym><CDISCDefinition>Auditory Verbal Learning Test Version A - The number of intrusions while recalling List A, first attempt.</CDISCDefinition><PreferredTerm>ADNI AVLT - List A Intrusions 1</PreferredTerm></EnumeratedItem><EnumeratedItem CodedValue="AVL01-List A Intrusions 2" nciodm:ExtCodeID="C101929"><CDISCSynonym>AVL01-List A Intrusions 2</CDISCSynonym><CDISCDefinition>Auditory Verbal Learning Test Version A - The number of intrusions while recalling List A, second attempt.</CDISCDefinition><PreferredTerm>ADNI AVLT - List A Intrusions 2</PreferredTerm></EnumeratedItem><EnumeratedItem CodedValue="AVL01-List A Intrusions 3" nciodm:ExtCodeID="C101946"><CDISCSynonym>AVL01-List A Intrusions 3</CDISCSynonym><CDISCDefinition>Auditory Verbal Learning Test Version A - The number of intrusions while recalling List A, third attempt.</CDISCDefinition><PreferredTerm>ADNI AVLT - List A Intrusions 3</PreferredTerm></EnumeratedItem><EnumeratedItem CodedValue="AVL01-List A Intrusions 4" nciodm:ExtCodeID="C101963"><CDISCSynonym>AVL01-List A Intrusions 4</CDISCSynonym><CDISCDefinition>Auditory Verbal Learning Test Version A - The number of intrusions while recalling List A, fourth attempt.</CDISCDefinition><PreferredTerm>ADNI AVLT - List A Intrusions 4</PreferredTerm></EnumeratedItem><EnumeratedItem CodedValue="AVL01-List A Intrusions 5" nciodm:ExtCodeID="C101980"><CDISCSynonym>AVL01-List A Intrusions 5</CDISCSynonym><CDISCDefinition>Auditory Verbal Learning Test Version A - The number of intrusions while recalling List A, fifth attempt.</CDISCDefinition><PreferredTerm>ADNI AVLT - List A Intrusions 5</PreferredTerm></EnumeratedItem><EnumeratedItem CodedValue="AVL01-List A Intrusions 6" nciodm:ExtCodeID="C101997"><CDISCSynonym>AVL01-List A Intrusions 6</CDISCSynonym><CDISCDefinition>Auditory Verbal Learning Test Version A - The number of intrusions while recalling List A, sixth attempt (after List B recall).</CDISCDefinition><PreferredTerm>ADNI AVLT - List A Intrusions 6</PreferredTerm></EnumeratedItem><EnumeratedItem CodedValue="AVL01-List A Recall 1 Total" nciodm:ExtCodeID="C101911"><CDISCSynonym>AVL01-List A Recall 1 Total</CDISCSynonym><CDISCDefinition>Auditory Verbal Learning Test Version A - The number of words recalled from List A, first attempt.</CDISCDefinition><PreferredTerm>ADNI AVLT - List A Recall 1 Total</PreferredTerm></EnumeratedItem><EnumeratedItem CodedValue="AVL01-List A Recall 1 Word 1" nciodm:ExtCodeID="C101896"><CDISCSynonym>AVL01-List A Recall 1 Word 1</CDISCSynonym><CDISCDefinition>Auditory Verbal Learning Test Version A - List A, Recall 1, Word 1.</CDISCDefinition><PreferredTerm>ADNI AVLT - List A Recall 1 Word 1</PreferredTerm></EnumeratedItem><EnumeratedItem CodedValue="AVL01-List A Recall 1 Word 10" nciodm:ExtCodeID="C101905"><CDISCSynonym>AVL01-List A Recall 1 Word 10</CDISCSynonym><CDISCDefinition>Auditory Verbal Learning Test Version A - List A, Recall 1, Word 10.</CDISCDefinition><PreferredTerm>ADNI AVLT - List A Recall 1 Word 10</PreferredTerm></EnumeratedItem><EnumeratedItem CodedValue="AVL01-List A Recall 1 Word 11" nciodm:ExtCodeID="C101906"><CDISCSynonym>AVL01-List A Recall 1 Word 11</CDISCSynonym><CDISCDefinition>Auditory Verbal Learning Test Version A - List A, Recall 1, Word 11.</CDISCDefinition><PreferredTerm>ADNI AVLT - List A Recall 1 Word 11</PreferredTerm></EnumeratedItem><EnumeratedItem CodedValue="AVL01-List A Recall 1 Word 12" nciodm:ExtCodeID="C101907"><CDISCSynonym>AVL01-List A Recall 1 Word 12</CDISCSynonym><CDISCDefinition>Auditory Verbal Learning Test Version A - List A, Recall 1, Word 12.</CDISCDefinition><PreferredTerm>ADNI AVLT - List A Recall 1 Word 12</PreferredTerm></EnumeratedItem><EnumeratedItem CodedValue="AVL01-List A Recall 1 Word 13" nciodm:ExtCodeID="C101908"><CDISCSynonym>AVL01-List A Recall 1 Word 13</CDISCSynonym><CDISCDefinition>Auditory Verbal Learning Test Version A - List A, Recall 1, Word 13.</CDISCDefinition><PreferredTerm>ADNI AVLT - List A Recall 1 Word 13</PreferredTerm></EnumeratedItem><EnumeratedItem CodedValue="AVL01-List A Recall 1 Word 14" nciodm:ExtCodeID="C101909"><CDISCSynonym>AVL01-List A Recall 1 Word 14</CDISCSynonym><CDISCDefinition>Auditory Verbal Learning Test Version A - List A, Recall 1, Word 14.</CDISCDefinition><PreferredTerm>ADNI AVLT - List A Recall 1 Word 14</PreferredTerm></EnumeratedItem><EnumeratedItem CodedValue="AVL01-List A Recall 1 Word 15" nciodm:ExtCodeID="C101910"><CDISCSynonym>AVL01-List A Recall 1 Word 15</CDISCSynonym><CDISCDefinition>Auditory Verbal Learning Test Version A - List A, Recall 1, Word 15.</CDISCDefinition><PreferredTerm>ADNI AVLT - List A Recall 1 Word 15</PreferredTerm></EnumeratedItem><EnumeratedItem CodedValue="AVL01-List A Recall 1 Word 2" nciodm:ExtCodeID="C101897"><CDISCSynonym>AVL01-List A Recall 1 Word 2</CDISCSynonym><CDISCDefinition>Auditory Verbal Learning Test Version A - List A, Recall 1, Word 2.</CDISCDefinition><PreferredTerm>ADNI AVLT - List A Recall 1 Word 2</PreferredTerm></EnumeratedItem><EnumeratedItem CodedValue="AVL01-List A Recall 1 Word 3" nciodm:ExtCodeID="C101898"><CDISCSynonym>AVL01-List A Recall 1 Word 3</CDISCSynonym><CDISCDefinition>Auditory Verbal Learning Test Version A - List A, Recall 1, Word 3.</CDISCDefinition><PreferredTerm>ADNI AVLT - List A Recall 1 Word 3</PreferredTerm></EnumeratedItem><EnumeratedItem CodedValue="AVL01-List A Recall 1 Word 4" nciodm:ExtCodeID="C101899"><CDISCSynonym>AVL01-List A Recall 1 Word 4</CDISCSynonym><CDISCDefinition>Auditory Verbal Learning Test Version A - List A, Recall 1, Word 4.</CDISCDefinition><PreferredTerm>ADNI AVLT - List A Recall 1 Word 4</PreferredTerm></EnumeratedItem><EnumeratedItem CodedValue="AVL01-List A Recall 1 Word 5" nciodm:ExtCodeID="C101900"><CDISCSynonym>AVL01-List A Recall 1 Word 5</CDISCSynonym><CDISCDefinition>Auditory Verbal Learning Test Version A - List A, Recall 1, Word 5.</CDISCDefinition><PreferredTerm>ADNI AVLT - List A Recall 1 Word 5</PreferredTerm></EnumeratedItem><EnumeratedItem CodedValue="AVL01-List A Recall 1 Word 6" nciodm:ExtCodeID="C101901"><CDISCSynonym>AVL01-List A Recall 1 Word 6</CDISCSynonym><CDISCDefinition>Auditory Verbal Learning Test Version A - List A, Recall 1, Word 6.</CDISCDefinition><PreferredTerm>ADNI AVLT - List A Recall 1 Word 6</PreferredTerm></EnumeratedItem><EnumeratedItem CodedValue="AVL01-List A Recall 1 Word 7" nciodm:ExtCodeID="C101902"><CDISCSynonym>AVL01-List A Recall 1 Word 7</CDISCSynonym><CDISCDefinition>Auditory Verbal Learning Test Version A - List A, Recall 1, Word 7.</CDISCDefinition><PreferredTerm>ADNI AVLT - List A Recall 1 Word 7</PreferredTerm></EnumeratedItem><EnumeratedItem CodedValue="AVL01-List A Recall 1 Word 8" nciodm:ExtCodeID="C101903"><CDISCSynonym>AVL01-List A Recall 1 Word 8</CDISCSynonym><CDISCDefinition>Auditory Verbal Learning Test Version A - List A, Recall 1, Word 8.</CDISCDefinition><PreferredTerm>ADNI AVLT - List A Recall 1 Word 8</PreferredTerm></EnumeratedItem><EnumeratedItem CodedValue="AVL01-List A Recall 1 Word 9" nciodm:ExtCodeID="C101904"><CDISCSynonym>AVL01-List A Recall 1 Word 9</CDISCSynonym><CDISCDefinition>Auditory Verbal Learning Test Version A - List A, Recall 1, Word 9.</CDISCDefinition><PreferredTerm>ADNI AVLT - List A Recall 1 Word 9</PreferredTerm></EnumeratedItem><EnumeratedItem CodedValue="AVL01-List A Recall 2 Total" nciodm:ExtCodeID="C101928"><CDISCSynonym>AVL01-List A Recall 2 Total</CDISCSynonym><CDISCDefinition>Auditory Verbal Learning Test Version A - The number of words recalled from List A, second attempt.</CDISCDefinition><PreferredTerm>ADNI AVLT - List A Recall 2 Total</PreferredTerm></EnumeratedItem><EnumeratedItem CodedValue="AVL01-List A Recall 2 Word 1" nciodm:ExtCodeID="C101913"><CDISCSynonym>AVL01-List A Recall 2 Word 1</CDISCSynonym><CDISCDefinition>Auditory Verbal Learning Test Version A - List A, Recall 2, Word 1.</CDISCDefinition><PreferredTerm>ADNI AVLT - List A Recall 2 Word 1</PreferredTerm></EnumeratedItem><EnumeratedItem CodedValue="AVL01-List A Recall 2 Word 10" nciodm:ExtCodeID="C101922"><CDISCSynonym>AVL01-List A Recall 2 Word 10</CDISCSynonym><CDISCDefinition>Auditory Verbal Learning Test Version A - List A, Recall 2, Word 10.</CDISCDefinition><PreferredTerm>ADNI AVLT - List A Recall 2 Word 10</PreferredTerm></EnumeratedItem><EnumeratedItem CodedValue="AVL01-List A Recall 2 Word 11" nciodm:ExtCodeID="C101923"><CDISCSynonym>AVL01-List A Recall 2 Word 11</CDISCSynonym><CDISCDefinition>Auditory Verbal Learning Test Version A - List A, Recall 2, Word 11.</CDISCDefinition><PreferredTerm>ADNI AVLT - List A Recall 2 Word 11</PreferredTerm></EnumeratedItem><EnumeratedItem CodedValue="AVL01-List A Recall 2 Word 12" nciodm:ExtCodeID="C101924"><CDISCSynonym>AVL01-List A Recall 2 Word 12</CDISCSynonym><CDISCDefinition>Auditory Verbal Learning Test Version A - List A, Recall 2, Word 12.</CDISCDefinition><PreferredTerm>ADNI AVLT - List A Recall 2 Word 12</PreferredTerm></EnumeratedItem><EnumeratedItem CodedValue="AVL01-List A Recall 2 Word 13" nciodm:ExtCodeID="C101925"><CDISCSynonym>AVL01-List A Recall 2 Word 13</CDISCSynonym><CDISCDefinition>Auditory Verbal Learning Test Version A - List A, Recall 2, Word 13.</CDISCDefinition><PreferredTerm>ADNI AVLT - List A Recall 2 Word 13</PreferredTerm></EnumeratedItem><EnumeratedItem CodedValue="AVL01-List A Recall 2 Word 14" nciodm:ExtCodeID="C101926"><CDISCSynonym>AVL01-List A Recall 2 Word 14</CDISCSynonym><CDISCDefinition>Auditory Verbal Learning Test Version A - List A, Recall 2, Word 14.</CDISCDefinition><PreferredTerm>ADNI AVLT - List A Recall 2 Word 14</PreferredTerm></EnumeratedItem><EnumeratedItem CodedValue="AVL01-List A Recall 2 Word 15" nciodm:ExtCodeID="C101927"><CDISCSynonym>AVL01-List A Recall 2 Word 15</CDISCSynonym><CDISCDefinition>Auditory Verbal Learning Test Version A - List A, Recall 2, Word 15.</CDISCDefinition><PreferredTerm>ADNI AVLT - List A Recall 2 Word 15</PreferredTerm></EnumeratedItem><EnumeratedItem CodedValue="AVL01-List A Recall 2 Word 2" nciodm:ExtCodeID="C101914"><CDISCSynonym>AVL01-List A Recall 2 Word 2</CDISCSynonym><CDISCDefinition>Auditory Verbal Learning Test Version A - List A, Recall 2, Word 2.</CDISCDefinition><PreferredTerm>ADNI AVLT - List A Recall 2 Word 2</PreferredTerm></EnumeratedItem><EnumeratedItem CodedValue="AVL01-List A Recall 2 Word 3" nciodm:ExtCodeID="C101915"><CDISCSynonym>AVL01-List A Recall 2 Word 3</CDISCSynonym><CDISCDefinition>Auditory Verbal Learning Test Version A - List A, Recall 2, Word 3.</CDISCDefinition><PreferredTerm>ADNI AVLT - List A Recall 2 Word 3</PreferredTerm></EnumeratedItem><EnumeratedItem CodedValue="AVL01-List A Recall 2 Word 4" nciodm:ExtCodeID="C101916"><CDISCSynonym>AVL01-List A Recall 2 Word 4</CDISCSynonym><CDISCDefinition>Auditory Verbal Learning Test Version A - List A, Recall 2, Word 4.</CDISCDefinition><PreferredTerm>ADNI AVLT - List A Recall 2 Word 4</PreferredTerm></EnumeratedItem><EnumeratedItem CodedValue="AVL01-List A Recall 2 Word 5" nciodm:ExtCodeID="C101917"><CDISCSynonym>AVL01-List A Recall 2 Word 5</CDISCSynonym><CDISCDefinition>Auditory Verbal Learning Test Version A - List A, Recall 2, Word 5.</CDISCDefinition><PreferredTerm>ADNI AVLT - List A Recall 2 Word 5</PreferredTerm></EnumeratedItem><EnumeratedItem CodedValue="AVL01-List A Recall 2 Word 6" nciodm:ExtCodeID="C101918"><CDISCSynonym>AVL01-List A Recall 2 Word 6</CDISCSynonym><CDISCDefinition>Auditory Verbal Learning Test Version A - List A, Recall 2, Word 6.</CDISCDefinition><PreferredTerm>ADNI AVLT - List A Recall 2 Word 6</PreferredTerm></EnumeratedItem><EnumeratedItem CodedValue="AVL01-List A Recall 2 Word 7" nciodm:ExtCodeID="C101919"><CDISCSynonym>AVL01-List A Recall 2 Word 7</CDISCSynonym><CDISCDefinition>Auditory Verbal Learning Test Version A - List A, Recall 2, Word 7.</CDISCDefinition><PreferredTerm>ADNI AVLT - List A Recall 2 Word 7</PreferredTerm></EnumeratedItem><EnumeratedItem CodedValue="AVL01-List A Recall 2 Word 8" nciodm:ExtCodeID="C101920"><CDISCSynonym>AVL01-List A Recall 2 Word 8</CDISCSynonym><CDISCDefinition>Auditory Verbal Learning Test Version A - List A, Recall 2, Word 8.</CDISCDefinition><PreferredTerm>ADNI AVLT - List A Recall 2 Word 8</PreferredTerm></EnumeratedItem><EnumeratedItem CodedValue="AVL01-List A Recall 2 Word 9" nciodm:ExtCodeID="C101921"><CDISCSynonym>AVL01-List A Recall 2 Word 9</CDISCSynonym><CDISCDefinition>Auditory Verbal Learning Test Version A - List A, Recall 2, Word 9.</CDISCDefinition><PreferredTerm>ADNI AVLT - List A Recall 2 Word 9</PreferredTerm></EnumeratedItem><EnumeratedItem CodedValue="AVL01-List A Recall 3 Total" nciodm:ExtCodeID="C101945"><CDISCSynonym>AVL01-List A Recall 3 Total</CDISCSynonym><CDISCDefinition>Auditory Verbal Learning Test Version A - The number of words recalled from List A, third attempt.</CDISCDefinition><PreferredTerm>ADNI AVLT - List A Recall 3 Total</PreferredTerm></EnumeratedItem><EnumeratedItem CodedValue="AVL01-List A Recall 3 Word 1" nciodm:ExtCodeID="C101930"><CDISCSynonym>AVL01-List A Recall 3 Word 1</CDISCSynonym><CDISCDefinition>Auditory Verbal Learning Test Version A - List A, Recall 3, Word 1.</CDISCDefinition><PreferredTerm>ADNI AVLT - List A Recall 3 Word 1</PreferredTerm></EnumeratedItem><EnumeratedItem CodedValue="AVL01-List A Recall 3 Word 10" nciodm:ExtCodeID="C101939"><CDISCSynonym>AVL01-List A Recall 3 Word 10</CDISCSynonym><CDISCDefinition>Auditory Verbal Learning Test Version A - List A, Recall 3, Word 10.</CDISCDefinition><PreferredTerm>ADNI AVLT - List A Recall 3 Word 10</PreferredTerm></EnumeratedItem><EnumeratedItem CodedValue="AVL01-List A Recall 3 Word 11" nciodm:ExtCodeID="C101940"><CDISCSynonym>AVL01-List A Recall 3 Word 11</CDISCSynonym><CDISCDefinition>Auditory Verbal Learning Test Version A - List A, Recall 3, Word 11.</CDISCDefinition><PreferredTerm>ADNI AVLT - List A Recall 3 Word 11</PreferredTerm></EnumeratedItem><EnumeratedItem CodedValue="AVL01-List A Recall 3 Word 12" nciodm:ExtCodeID="C101941"><CDISCSynonym>AVL01-List A Recall 3 Word 12</CDISCSynonym><CDISCDefinition>Auditory Verbal Learning Test Version A - List A, Recall 3, Word 12.</CDISCDefinition><PreferredTerm>ADNI AVLT - List A Recall 3 Word 12</PreferredTerm></EnumeratedItem><EnumeratedItem CodedValue="AVL01-List A Recall 3 Word 13" nciodm:ExtCodeID="C101942"><CDISCSynonym>AVL01-List A Recall 3 Word 13</CDISCSynonym><CDISCDefinition>Auditory Verbal Learning Test Version A - List A, Recall 3, Word 13.</CDISCDefinition><PreferredTerm>ADNI AVLT - List A Recall 3 Word 13</PreferredTerm></EnumeratedItem><EnumeratedItem CodedValue="AVL01-List A Recall 3 Word 14" nciodm:ExtCodeID="C101943"><CDISCSynonym>AVL01-List A Recall 3 Word 14</CDISCSynonym><CDISCDefinition>Auditory Verbal Learning Test Version A - List A, Recall 3, Word 14.</CDISCDefinition><PreferredTerm>ADNI AVLT - List A Recall 3 Word 14</PreferredTerm></EnumeratedItem><EnumeratedItem CodedValue="AVL01-List A Recall 3 Word 15" nciodm:ExtCodeID="C101944"><CDISCSynonym>AVL01-List A Recall 3 Word 15</CDISCSynonym><CDISCDefinition>Auditory Verbal Learning Test Version A - List A, Recall 3, Word 15.</CDISCDefinition><PreferredTerm>ADNI AVLT - List A Recall 3 Word 15</PreferredTerm></EnumeratedItem><EnumeratedItem CodedValue="AVL01-List A Recall 3 Word 2" nciodm:ExtCodeID="C101931"><CDISCSynonym>AVL01-List A Recall 3 Word 2</CDISCSynonym><CDISCDefinition>Auditory Verbal Learning Test Version A - List A, Recall 3, Word 2.</CDISCDefinition><PreferredTerm>ADNI AVLT - List A Recall 3 Word 2</PreferredTerm></EnumeratedItem><EnumeratedItem CodedValue="AVL01-List A Recall 3 Word 3" nciodm:ExtCodeID="C101932"><CDISCSynonym>AVL01-List A Recall 3 Word 3</CDISCSynonym><CDISCDefinition>Auditory Verbal Learning Test Version A - List A, Recall 3, Word 3.</CDISCDefinition><PreferredTerm>ADNI AVLT - List A Recall 3 Word 3</PreferredTerm></EnumeratedItem><EnumeratedItem CodedValue="AVL01-List A Recall 3 Word 4" nciodm:ExtCodeID="C101933"><CDISCSynonym>AVL01-List A Recall 3 Word 4</CDISCSynonym><CDISCDefinition>Auditory Verbal Learning Test Version A - List A, Recall 3, Word 4.</CDISCDefinition><PreferredTerm>ADNI AVLT - List A Recall 3 Word 4</PreferredTerm></EnumeratedItem><EnumeratedItem CodedValue="AVL01-List A Recall 3 Word 5" nciodm:ExtCodeID="C101934"><CDISCSynonym>AVL01-List A Recall 3 Word 5</CDISCSynonym><CDISCDefinition>Auditory Verbal Learning Test Version A - List A, Recall 3, Word 5.</CDISCDefinition><PreferredTerm>ADNI AVLT - List A Recall 3 Word 5</PreferredTerm></EnumeratedItem><EnumeratedItem CodedValue="AVL01-List A Recall 3 Word 6" nciodm:ExtCodeID="C101935"><CDISCSynonym>AVL01-List A Recall 3 Word 6</CDISCSynonym><CDISCDefinition>Auditory Verbal Learning Test Version A - List A, Recall 3, Word 6.</CDISCDefinition><PreferredTerm>ADNI AVLT - List A Recall 3 Word 6</PreferredTerm></EnumeratedItem><EnumeratedItem CodedValue="AVL01-List A Recall 3 Word 7" nciodm:ExtCodeID="C101936"><CDISCSynonym>AVL01-List A Recall 3 Word 7</CDISCSynonym><CDISCDefinition>Auditory Verbal Learning Test Version A - List A, Recall 3, Word 7.</CDISCDefinition><PreferredTerm>ADNI AVLT - List A Recall 3 Word 7</PreferredTerm></EnumeratedItem><EnumeratedItem CodedValue="AVL01-List A Recall 3 Word 8" nciodm:ExtCodeID="C101937"><CDISCSynonym>AVL01-List A Recall 3 Word 8</CDISCSynonym><CDISCDefinition>Auditory Verbal Learning Test Version A - List A, Recall 3, Word 8.</CDISCDefinition><PreferredTerm>ADNI AVLT - List A Recall 3 Word 8</PreferredTerm></EnumeratedItem><EnumeratedItem CodedValue="AVL01-List A Recall 3 Word 9" nciodm:ExtCodeID="C101938"><CDISCSynonym>AVL01-List A Recall 3 Word 9</CDISCSynonym><CDISCDefinition>Auditory Verbal Learning Test Version A - List A, Recall 3, Word 9.</CDISCDefinition><PreferredTerm>ADNI AVLT - List A Recall 3 Word 9</PreferredTerm></EnumeratedItem><EnumeratedItem CodedValue="AVL01-List A Recall 4 Total" nciodm:ExtCodeID="C101962"><CDISCSynonym>AVL01-List A Recall 4 Total</CDISCSynonym><CDISCDefinition>Auditory Verbal Learning Test Version A - The number of words recalled from List A, fourth attempt.</CDISCDefinition><PreferredTerm>ADNI AVLT - List A Recall 4 Total</PreferredTerm></EnumeratedItem><EnumeratedItem CodedValue="AVL01-List A Recall 4 Word 1" nciodm:ExtCodeID="C101947"><CDISCSynonym>AVL01-List A Recall 4 Word 1</CDISCSynonym><CDISCDefinition>Auditory Verbal Learning Test Version A - List A, Recall 4, Word 1.</CDISCDefinition><PreferredTerm>ADNI AVLT - List A Recall 4 Word 1</PreferredTerm></EnumeratedItem><EnumeratedItem CodedValue="AVL01-List A Recall 4 Word 10" nciodm:ExtCodeID="C101956"><CDISCSynonym>AVL01-List A Recall 4 Word 10</CDISCSynonym><CDISCDefinition>Auditory Verbal Learning Test Version A - List A, Recall 4, Word 10.</CDISCDefinition><PreferredTerm>ADNI AVLT - List A Recall 4 Word 10</PreferredTerm></EnumeratedItem><EnumeratedItem CodedValue="AVL01-List A Recall 4 Word 11" nciodm:ExtCodeID="C101957"><CDISCSynonym>AVL01-List A Recall 4 Word 11</CDISCSynonym><CDISCDefinition>Auditory Verbal Learning Test Version A - List A, Recall 4, Word 11.</CDISCDefinition><PreferredTerm>ADNI AVLT - List A Recall 4 Word 11</PreferredTerm></EnumeratedItem><EnumeratedItem CodedValue="AVL01-List A Recall 4 Word 12" nciodm:ExtCodeID="C101958"><CDISCSynonym>AVL01-List A Recall 4 Word 12</CDISCSynonym><CDISCDefinition>Auditory Verbal Learning Test Version A - List A, Recall 4, Word 12.</CDISCDefinition><PreferredTerm>ADNI AVLT - List A Recall 4 Word 12</PreferredTerm></EnumeratedItem><EnumeratedItem CodedValue="AVL01-List A Recall 4 Word 13" nciodm:ExtCodeID="C101959"><CDISCSynonym>AVL01-List A Recall 4 Word 13</CDISCSynonym><CDISCDefinition>Auditory Verbal Learning Test Version A - List A, Recall 4, Word 13.</CDISCDefinition><PreferredTerm>ADNI AVLT - List A Recall 4 Word 13</PreferredTerm></EnumeratedItem><EnumeratedItem CodedValue="AVL01-List A Recall 4 Word 14" nciodm:ExtCodeID="C101960"><CDISCSynonym>AVL01-List A Recall 4 Word 14</CDISCSynonym><CDISCDefinition>Auditory Verbal Learning Test Version A - List A, Recall 4, Word 14.</CDISCDefinition><PreferredTerm>ADNI AVLT - List A Recall 4 Word 14</PreferredTerm></EnumeratedItem><EnumeratedItem CodedValue="AVL01-List A Recall 4 Word 15" nciodm:ExtCodeID="C101961"><CDISCSynonym>AVL01-List A Recall 4 Word 15</CDISCSynonym><CDISCDefinition>Auditory Verbal Learning Test Version A - List A, Recall 4, Word 15.</CDISCDefinition><PreferredTerm>ADNI AVLT - List A Recall 4 Word 15</PreferredTerm></EnumeratedItem><EnumeratedItem CodedValue="AVL01-List A Recall 4 Word 2" nciodm:ExtCodeID="C101948"><CDISCSynonym>AVL01-List A Recall 4 Word 2</CDISCSynonym><CDISCDefinition>Auditory Verbal Learning Test Version A - List A, Recall 4, Word 2.</CDISCDefinition><PreferredTerm>ADNI AVLT - List A Recall 4 Word 2</PreferredTerm></EnumeratedItem><EnumeratedItem CodedValue="AVL01-List A Recall 4 Word 3" nciodm:ExtCodeID="C101949"><CDISCSynonym>AVL01-List A Recall 4 Word 3</CDISCSynonym><CDISCDefinition>Auditory Verbal Learning Test Version A - List A, Recall 4, Word 3.</CDISCDefinition><PreferredTerm>ADNI AVLT - List A Recall 4 Word 3</PreferredTerm></EnumeratedItem><EnumeratedItem CodedValue="AVL01-List A Recall 4 Word 4" nciodm:ExtCodeID="C101950"><CDISCSynonym>AVL01-List A Recall 4 Word 4</CDISCSynonym><CDISCDefinition>Auditory Verbal Learning Test Version A - List A, Recall 4, Word 4.</CDISCDefinition><PreferredTerm>ADNI AVLT - List A Recall 4 Word 4</PreferredTerm></EnumeratedItem><EnumeratedItem CodedValue="AVL01-List A Recall 4 Word 5" nciodm:ExtCodeID="C101951"><CDISCSynonym>AVL01-List A Recall 4 Word 5</CDISCSynonym><CDISCDefinition>Auditory Verbal Learning Test Version A - List A, Recall 4, Word 5.</CDISCDefinition><PreferredTerm>ADNI AVLT - List A Recall 4 Word 5</PreferredTerm></EnumeratedItem><EnumeratedItem CodedValue="AVL01-List A Recall 4 Word 6" nciodm:ExtCodeID="C101952"><CDISCSynonym>AVL01-List A Recall 4 Word 6</CDISCSynonym><CDISCDefinition>Auditory Verbal Learning Test Version A - List A, Recall 4, Word 6.</CDISCDefinition><PreferredTerm>ADNI AVLT - List A Recall 4 Word 6</PreferredTerm></EnumeratedItem><EnumeratedItem CodedValue="AVL01-List A Recall 4 Word 7" nciodm:ExtCodeID="C101953"><CDISCSynonym>AVL01-List A Recall 4 Word 7</CDISCSynonym><CDISCDefinition>Auditory Verbal Learning Test Version A - List A, Recall 4, Word 7.</CDISCDefinition><PreferredTerm>ADNI AVLT - List A Recall 4 Word 7</PreferredTerm></EnumeratedItem><EnumeratedItem CodedValue="AVL01-List A Recall 4 Word 8" nciodm:ExtCodeID="C101954"><CDISCSynonym>AVL01-List A Recall 4 Word 8</CDISCSynonym><CDISCDefinition>Auditory Verbal Learning Test Version A - List A, Recall 4, Word 8.</CDISCDefinition><PreferredTerm>ADNI AVLT - List A Recall 4 Word 8</PreferredTerm></EnumeratedItem><EnumeratedItem CodedValue="AVL01-List A Recall 4 Word 9" nciodm:ExtCodeID="C101955"><CDISCSynonym>AVL01-List A Recall 4 Word 9</CDISCSynonym><CDISCDefinition>Auditory Verbal Learning Test Version A - List A, Recall 4, Word 9.</CDISCDefinition><PreferredTerm>ADNI AVLT - List A Recall 4 Word 9</PreferredTerm></EnumeratedItem><EnumeratedItem CodedValue="AVL01-List A Recall 5 Total" nciodm:ExtCodeID="C101979"><CDISCSynonym>AVL01-List A Recall 5 Total</CDISCSynonym><CDISCDefinition>Auditory Verbal Learning Test Version A - The number of words recalled from List A, fifth attempt.</CDISCDefinition><PreferredTerm>ADNI AVLT - List A Recall 5 Total</PreferredTerm></EnumeratedItem><EnumeratedItem CodedValue="AVL01-List A Recall 5 Word 1" nciodm:ExtCodeID="C101964"><CDISCSynonym>AVL01-List A Recall 5 Word 1</CDISCSynonym><CDISCDefinition>Auditory Verbal Learning Test Version A - List A, Recall 5, Word 1.</CDISCDefinition><PreferredTerm>ADNI AVLT - List A Recall 5 Word 1</PreferredTerm></EnumeratedItem><EnumeratedItem CodedValue="AVL01-List A Recall 5 Word 10" nciodm:ExtCodeID="C101973"><CDISCSynonym>AVL01-List A Recall 5 Word 10</CDISCSynonym><CDISCDefinition>Auditory Verbal Learning Test Version A - List A, Recall 5, Word 10.</CDISCDefinition><PreferredTerm>ADNI AVLT - List A Recall 5 Word 10</PreferredTerm></EnumeratedItem><EnumeratedItem CodedValue="AVL01-List A Recall 5 Word 11" nciodm:ExtCodeID="C101974"><CDISCSynonym>AVL01-List A Recall 5 Word 11</CDISCSynonym><CDISCDefinition>Auditory Verbal Learning Test Version A - List A, Recall 5, Word 11.</CDISCDefinition><PreferredTerm>ADNI AVLT - List A Recall 5 Word 11</PreferredTerm></EnumeratedItem><EnumeratedItem CodedValue="AVL01-List A Recall 5 Word 12" nciodm:ExtCodeID="C101975"><CDISCSynonym>AVL01-List A Recall 5 Word 12</CDISCSynonym><CDISCDefinition>Auditory Verbal Learning Test Version A - List A, Recall 5, Word 12.</CDISCDefinition><PreferredTerm>ADNI AVLT - List A Recall 5 Word 12</PreferredTerm></EnumeratedItem><EnumeratedItem CodedValue="AVL01-List A Recall 5 Word 13" nciodm:ExtCodeID="C101976"><CDISCSynonym>AVL01-List A Recall 5 Word 13</CDISCSynonym><CDISCDefinition>Auditory Verbal Learning Test Version A - List A, Recall 5, Word 13.</CDISCDefinition><PreferredTerm>ADNI AVLT - List A Recall 5 Word 13</PreferredTerm></EnumeratedItem><EnumeratedItem CodedValue="AVL01-List A Recall 5 Word 14" nciodm:ExtCodeID="C101977"><CDISCSynonym>AVL01-List A Recall 5 Word 14</CDISCSynonym><CDISCDefinition>Auditory Verbal Learning Test Version A - List A, Recall 5, Word 14.</CDISCDefinition><PreferredTerm>ADNI AVLT - List A Recall 5 Word 14</PreferredTerm></EnumeratedItem><EnumeratedItem CodedValue="AVL01-List A Recall 5 Word 15" nciodm:ExtCodeID="C101978"><CDISCSynonym>AVL01-List A Recall 5 Word 15</CDISCSynonym><CDISCDefinition>Auditory Verbal Learning Test Version A - List A, Recall 5, Word 15.</CDISCDefinition><PreferredTerm>ADNI AVLT - List A Recall 5 Word 15</PreferredTerm></EnumeratedItem><EnumeratedItem CodedValue="AVL01-List A Recall 5 Word 2" nciodm:ExtCodeID="C101965"><CDISCSynonym>AVL01-List A Recall 5 Word 2</CDISCSynonym><CDISCDefinition>Auditory Verbal Learning Test Version A - List A, Recall 5, Word 2.</CDISCDefinition><PreferredTerm>ADNI AVLT - List A Recall 5 Word 2</PreferredTerm></EnumeratedItem><EnumeratedItem CodedValue="AVL01-List A Recall 5 Word 3" nciodm:ExtCodeID="C101966"><CDISCSynonym>AVL01-List A Recall 5 Word 3</CDISCSynonym><CDISCDefinition>Auditory Verbal Learning Test Version A - List A, Recall 5, Word 3.</CDISCDefinition><PreferredTerm>ADNI AVLT - List A Recall 5 Word 3</PreferredTerm></EnumeratedItem><EnumeratedItem CodedValue="AVL01-List A Recall 5 Word 4" nciodm:ExtCodeID="C101967"><CDISCSynonym>AVL01-List A Recall 5 Word 4</CDISCSynonym><CDISCDefinition>Auditory Verbal Learning Test Version A - List A, Recall 5, Word 4.</CDISCDefinition><PreferredTerm>ADNI AVLT - List A Recall 5 Word 4</PreferredTerm></EnumeratedItem><EnumeratedItem CodedValue="AVL01-List A Recall 5 Word 5" nciodm:ExtCodeID="C101968"><CDISCSynonym>AVL01-List A Recall 5 Word 5</CDISCSynonym><CDISCDefinition>Auditory Verbal Learning Test Version A - List A, Recall 5, Word 5.</CDISCDefinition><PreferredTerm>ADNI AVLT - List A Recall 5 Word 5</PreferredTerm></EnumeratedItem><EnumeratedItem CodedValue="AVL01-List A Recall 5 Word 6" nciodm:ExtCodeID="C101969"><CDISCSynonym>AVL01-List A Recall 5 Word 6</CDISCSynonym><CDISCDefinition>Auditory Verbal Learning Test Version A - List A, Recall 5, Word 6.</CDISCDefinition><PreferredTerm>ADNI AVLT - List A Recall 5 Word 6</PreferredTerm></EnumeratedItem><EnumeratedItem CodedValue="AVL01-List A Recall 5 Word 7" nciodm:ExtCodeID="C101970"><CDISCSynonym>AVL01-List A Recall 5 Word 7</CDISCSynonym><CDISCDefinition>Auditory Verbal Learning Test Version A - List A, Recall 5, Word 7.</CDISCDefinition><PreferredTerm>ADNI AVLT - List A Recall 5 Word 7</PreferredTerm></EnumeratedItem><EnumeratedItem CodedValue="AVL01-List A Recall 5 Word 8" nciodm:ExtCodeID="C101971"><CDISCSynonym>AVL01-List A Recall 5 Word 8</CDISCSynonym><CDISCDefinition>Auditory Verbal Learning Test Version A - List A, Recall 5, Word 8.</CDISCDefinition><PreferredTerm>ADNI AVLT - List A Recall 5 Word 8</PreferredTerm></EnumeratedItem><EnumeratedItem CodedValue="AVL01-List A Recall 5 Word 9" nciodm:ExtCodeID="C101972"><CDISCSynonym>AVL01-List A Recall 5 Word 9</CDISCSynonym><CDISCDefinition>Auditory Verbal Learning Test Version A - List A, Recall 5, Word 9.</CDISCDefinition><PreferredTerm>ADNI AVLT - List A Recall 5 Word 9</PreferredTerm></EnumeratedItem><EnumeratedItem CodedValue="AVL01-List A Recall 6 (After B) Total" nciodm:ExtCodeID="C101996"><CDISCSynonym>AVL01-List A Recall 6 (After B) Total</CDISCSynonym><CDISCDefinition>Auditory Verbal Learning Test Version A - The number of words recalled from List A, sixth attempt (after List B recall).</CDISCDefinition><PreferredTerm>ADNI AVLT - List A Recall 6 (After B) Total</PreferredTerm></EnumeratedItem><EnumeratedItem CodedValue="AVL01-List A Recall 6 (After B) Word 1" nciodm:ExtCodeID="C101981"><CDISCSynonym>AVL01-List A Recall 6 (After B) Word 1</CDISCSynonym><CDISCDefinition>Auditory Verbal Learning Test Version A - List A, Recall 6 (after B Recall), Word 1.</CDISCDefinition><PreferredTerm>ADNI AVLT - List A Recall 6 (After B) Word 1</PreferredTerm></EnumeratedItem><EnumeratedItem CodedValue="AVL01-List A Recall 6 (After B) Word 10" nciodm:ExtCodeID="C101990"><CDISCSynonym>AVL01-List A Recall 6 (After B) Word 10</CDISCSynonym><CDISCDefinition>Auditory Verbal Learning Test Version A - List A, Recall 6 (after B Recall), Word 10.</CDISCDefinition><PreferredTerm>ADNI AVLT - List A Recall 6 (After B) Word 10</PreferredTerm></EnumeratedItem><EnumeratedItem CodedValue="AVL01-List A Recall 6 (After B) Word 11" nciodm:ExtCodeID="C101991"><CDISCSynonym>AVL01-List A Recall 6 (After B) Word 11</CDISCSynonym><CDISCDefinition>Auditory Verbal Learning Test Version A - List A, Recall 6 (after B Recall), Word 11.</CDISCDefinition><PreferredTerm>ADNI AVLT - List A Recall 6 (After B) Word 11</PreferredTerm></EnumeratedItem><EnumeratedItem CodedValue="AVL01-List A Recall 6 (After B) Word 12" nciodm:ExtCodeID="C101992"><CDISCSynonym>AVL01-List A Recall 6 (After B) Word 12</CDISCSynonym><CDISCDefinition>Auditory Verbal Learning Test Version A - List A, Recall 6 (after B Recall), Word 12.</CDISCDefinition><PreferredTerm>ADNI AVLT - List A Recall 6 (After B) Word 12</PreferredTerm></EnumeratedItem><EnumeratedItem CodedValue="AVL01-List A Recall 6 (After B) Word 13" nciodm:ExtCodeID="C101993"><CDISCSynonym>AVL01-List A Recall 6 (After B) Word 13</CDISCSynonym><CDISCDefinition>Auditory Verbal Learning Test Version A - List A, Recall 6 (after B Recall), Word 13.</CDISCDefinition><PreferredTerm>ADNI AVLT - List A Recall 6 (After B) Word 13</PreferredTerm></EnumeratedItem><EnumeratedItem CodedValue="AVL01-List A Recall 6 (After B) Word 14" nciodm:ExtCodeID="C101994"><CDISCSynonym>AVL01-List A Recall 6 (After B) Word 14</CDISCSynonym><CDISCDefinition>Auditory Verbal Learning Test Version A - List A, Recall 6 (after B Recall), Word 14.</CDISCDefinition><PreferredTerm>ADNI AVLT - List A Recall 6 (After B) Word 14</PreferredTerm></EnumeratedItem><EnumeratedItem CodedValue="AVL01-List A Recall 6 (After B) Word 15" nciodm:ExtCodeID="C101995"><CDISCSynonym>AVL01-List A Recall 6 (After B) Word 15</CDISCSynonym><CDISCDefinition>Auditory Verbal Learning Test Version A - List A, Recall 6 (after B Recall), Word 15.</CDISCDefinition><PreferredTerm>ADNI AVLT - List A Recall 6 (After B) Word 15</PreferredTerm></EnumeratedItem><EnumeratedItem CodedValue="AVL01-List A Recall 6 (After B) Word 2" nciodm:ExtCodeID="C101982"><CDISCSynonym>AVL01-List A Recall 6 (After B) Word 2</CDISCSynonym><CDISCDefinition>Auditory Verbal Learning Test Version A - List A, Recall 6 (after B Recall), Word 2.</CDISCDefinition><PreferredTerm>ADNI AVLT - List A Recall 6 (After B) Word 2</PreferredTerm></EnumeratedItem><EnumeratedItem CodedValue="AVL01-List A Recall 6 (After B) Word 3" nciodm:ExtCodeID="C101983"><CDISCSynonym>AVL01-List A Recall 6 (After B) Word 3</CDISCSynonym><CDISCDefinition>Auditory Verbal Learning Test Version A - List A, Recall 6 (after B Recall), Word 3.</CDISCDefinition><PreferredTerm>ADNI AVLT - List A Recall 6 (After B) Word 3</PreferredTerm></EnumeratedItem><EnumeratedItem CodedValue="AVL01-List A Recall 6 (After B) Word 4" nciodm:ExtCodeID="C101984"><CDISCSynonym>AVL01-List A Recall 6 (After B) Word 4</CDISCSynonym><CDISCDefinition>Auditory Verbal Learning Test Version A - List A, Recall 6 (after B Recall), Word 4.</CDISCDefinition><PreferredTerm>ADNI AVLT - List A Recall 6 (After B) Word 4</PreferredTerm></EnumeratedItem><EnumeratedItem CodedValue="AVL01-List A Recall 6 (After B) Word 5" nciodm:ExtCodeID="C101985"><CDISCSynonym>AVL01-List A Recall 6 (After B) Word 5</CDISCSynonym><CDISCDefinition>Auditory Verbal Learning Test Version A - List A, Recall 6 (after B Recall), Word 5.</CDISCDefinition><PreferredTerm>ADNI AVLT - List A Recall 6 (After B) Word 5</PreferredTerm></EnumeratedItem><EnumeratedItem CodedValue="AVL01-List A Recall 6 (After B) Word 6" nciodm:ExtCodeID="C101986"><CDISCSynonym>AVL01-List A Recall 6 (After B) Word 6</CDISCSynonym><CDISCDefinition>Auditory Verbal Learning Test Version A - List A, Recall 6 (after B Recall), Word 6.</CDISCDefinition><PreferredTerm>ADNI AVLT - List A Recall 6 (After B) Word 6</PreferredTerm></EnumeratedItem><EnumeratedItem CodedValue="AVL01-List A Recall 6 (After B) Word 7" nciodm:ExtCodeID="C101987"><CDISCSynonym>AVL01-List A Recall 6 (After B) Word 7</CDISCSynonym><CDISCDefinition>Auditory Verbal Learning Test Version A - List A, Recall 6 (after B Recall), Word 7.</CDISCDefinition><PreferredTerm>ADNI AVLT - List A Recall 6 (After B) Word 7</PreferredTerm></EnumeratedItem><EnumeratedItem CodedValue="AVL01-List A Recall 6 (After B) Word 8" nciodm:ExtCodeID="C101988"><CDISCSynonym>AVL01-List A Recall 6 (After B) Word 8</CDISCSynonym><CDISCDefinition>Auditory Verbal Learning Test Version A - List A, Recall 6 (after B Recall), Word 8.</CDISCDefinition><PreferredTerm>ADNI AVLT - List A Recall 6 (After B) Word 8</PreferredTerm></EnumeratedItem><EnumeratedItem CodedValue="AVL01-List A Recall 6 (After B) Word 9" nciodm:ExtCodeID="C101989"><CDISCSynonym>AVL01-List A Recall 6 (After B) Word 9</CDISCSynonym><CDISCDefinition>Auditory Verbal Learning Test Version A - List A, Recall 6 (after B Recall), Word 9.</CDISCDefinition><PreferredTerm>ADNI AVLT - List A Recall 6 (After B) Word 9</PreferredTerm></EnumeratedItem><EnumeratedItem CodedValue="AVL01-List A Recognition Intrusions" nciodm:ExtCodeID="C102033"><CDISCSynonym>AVL01-List A Recognition Intrusions</CDISCSynonym><CDISCDefinition>Auditory Verbal Learning Test Version A - The number of intrusions on recognition test.</CDISCDefinition><PreferredTerm>ADNI AVLT - List A Recognition Intrusions</PreferredTerm></EnumeratedItem><EnumeratedItem CodedValue="AVL01-List A Recognition Total" nciodm:ExtCodeID="C102032"><CDISCSynonym>AVL01-List A Recognition Total</CDISCSynonym><CDISCDefinition>Auditory Verbal Learning Test Version A - The number of words correct on recognition test.</CDISCDefinition><PreferredTerm>ADNI AVLT - List A Recognition Total</PreferredTerm></EnumeratedItem><EnumeratedItem CodedValue="AVL01-List B Intrusions" nciodm:ExtCodeID="C102014"><CDISCSynonym>AVL01-List B Intrusions</CDISCSynonym><CDISCDefinition>Auditory Verbal Learning Test Version A - The number of intrusions while recalling List B.</CDISCDefinition><PreferredTerm>ADNI AVLT - List B Intrusions</PreferredTerm></EnumeratedItem><EnumeratedItem CodedValue="AVL01-List B Recall Total" nciodm:ExtCodeID="C102013"><CDISCSynonym>AVL01-List B Recall Total</CDISCSynonym><CDISCDefinition>Auditory Verbal Learning Test Version A - The number of words recalled from List B.</CDISCDefinition><PreferredTerm>ADNI AVLT - List B Recall Total</PreferredTerm></EnumeratedItem><EnumeratedItem CodedValue="AVL01-List B Recall Word 1" nciodm:ExtCodeID="C101998"><CDISCSynonym>AVL01-List B Recall Word 1</CDISCSynonym><CDISCDefinition>Auditory Verbal Learning Test Version A - List B, Word 1.</CDISCDefinition><PreferredTerm>ADNI AVLT - List B Recall Word 1</PreferredTerm></EnumeratedItem><EnumeratedItem CodedValue="AVL01-List B Recall Word 10" nciodm:ExtCodeID="C102007"><CDISCSynonym>AVL01-List B Recall Word 10</CDISCSynonym><CDISCDefinition>Auditory Verbal Learning Test Version A - List B, Word 10.</CDISCDefinition><PreferredTerm>ADNI AVLT - List B Recall Word 10</PreferredTerm></EnumeratedItem><EnumeratedItem CodedValue="AVL01-List B Recall Word 11" nciodm:ExtCodeID="C102008"><CDISCSynonym>AVL01-List B Recall Word 11</CDISCSynonym><CDISCDefinition>Auditory Verbal Learning Test Version A - List B, Word 11.</CDISCDefinition><PreferredTerm>ADNI AVLT - List B Recall Word 11</PreferredTerm></EnumeratedItem><EnumeratedItem CodedValue="AVL01-List B Recall Word 12" nciodm:ExtCodeID="C102009"><CDISCSynonym>AVL01-List B Recall Word 12</CDISCSynonym><CDISCDefinition>Auditory Verbal Learning Test Version A - List B, Word 12.</CDISCDefinition><PreferredTerm>ADNI AVLT - List B Recall Word 12</PreferredTerm></EnumeratedItem><EnumeratedItem CodedValue="AVL01-List B Recall Word 13" nciodm:ExtCodeID="C102010"><CDISCSynonym>AVL01-List B Recall Word 13</CDISCSynonym><CDISCDefinition>Auditory Verbal Learning Test Version A - List B, Word 13.</CDISCDefinition><PreferredTerm>ADNI AVLT - List B Recall Word 13</PreferredTerm></EnumeratedItem><EnumeratedItem CodedValue="AVL01-List B Recall Word 14" nciodm:ExtCodeID="C102011"><CDISCSynonym>AVL01-List B Recall Word 14</CDISCSynonym><CDISCDefinition>Auditory Verbal Learning Test Version A - List B, Word 14.</CDISCDefinition><PreferredTerm>ADNI AVLT - List B Recall Word 14</PreferredTerm></EnumeratedItem><EnumeratedItem CodedValue="AVL01-List B Recall Word 15" nciodm:ExtCodeID="C102012"><CDISCSynonym>AVL01-List B Recall Word 15</CDISCSynonym><CDISCDefinition>Auditory Verbal Learning Test Version A - List B, Word 15.</CDISCDefinition><PreferredTerm>ADNI AVLT - List B Recall Word 15</PreferredTerm></EnumeratedItem><EnumeratedItem CodedValue="AVL01-List B Recall Word 2" nciodm:ExtCodeID="C101999"><CDISCSynonym>AVL01-List B Recall Word 2</CDISCSynonym><CDISCDefinition>Auditory Verbal Learning Test Version A - List B, Word 2.</CDISCDefinition><PreferredTerm>ADNI AVLT - List B Recall Word 2</PreferredTerm></EnumeratedItem><EnumeratedItem CodedValue="AVL01-List B Recall Word 3" nciodm:ExtCodeID="C102000"><CDISCSynonym>AVL01-List B Recall Word 3</CDISCSynonym><CDISCDefinition>Auditory Verbal Learning Test Version A - List B, Word 3.</CDISCDefinition><PreferredTerm>ADNI AVLT - List B Recall Word 3</PreferredTerm></EnumeratedItem><EnumeratedItem CodedValue="AVL01-List B Recall Word 4" nciodm:ExtCodeID="C102001"><CDISCSynonym>AVL01-List B Recall Word 4</CDISCSynonym><CDISCDefinition>Auditory Verbal Learning Test Version A - List B, Word 4.</CDISCDefinition><PreferredTerm>ADNI AVLT - List B Recall Word 4</PreferredTerm></EnumeratedItem><EnumeratedItem CodedValue="AVL01-List B Recall Word 5" nciodm:ExtCodeID="C102002"><CDISCSynonym>AVL01-List B Recall Word 5</CDISCSynonym><CDISCDefinition>Auditory Verbal Learning Test Version A - List B, Word 5.</CDISCDefinition><PreferredTerm>ADNI AVLT - List B Recall Word 5</PreferredTerm></EnumeratedItem><EnumeratedItem CodedValue="AVL01-List B Recall Word 6" nciodm:ExtCodeID="C102003"><CDISCSynonym>AVL01-List B Recall Word 6</CDISCSynonym><CDISCDefinition>Auditory Verbal Learning Test Version A - List B, Word 6.</CDISCDefinition><PreferredTerm>ADNI AVLT - List B Recall Word 6</PreferredTerm></EnumeratedItem><EnumeratedItem CodedValue="AVL01-List B Recall Word 7" nciodm:ExtCodeID="C102004"><CDISCSynonym>AVL01-List B Recall Word 7</CDISCSynonym><CDISCDefinition>Auditory Verbal Learning Test Version A - List B, Word 7.</CDISCDefinition><PreferredTerm>ADNI AVLT - List B Recall Word 7</PreferredTerm></EnumeratedItem><EnumeratedItem CodedValue="AVL01-List B Recall Word 8" nciodm:ExtCodeID="C102005"><CDISCSynonym>AVL01-List B Recall Word 8</CDISCSynonym><CDISCDefinition>Auditory Verbal Learning Test Version A - List B, Word 8.</CDISCDefinition><PreferredTerm>ADNI AVLT - List B Recall Word 8</PreferredTerm></EnumeratedItem><EnumeratedItem CodedValue="AVL01-List B Recall Word 9" nciodm:ExtCodeID="C102006"><CDISCSynonym>AVL01-List B Recall Word 9</CDISCSynonym><CDISCDefinition>Auditory Verbal Learning Test Version A - List B, Word 9.</CDISCDefinition><PreferredTerm>ADNI AVLT - List B Recall Word 9</PreferredTerm></EnumeratedItem><CDISCSubmissionValue>AVL01TN</CDISCSubmissionValue><CDISCSynonym>ADNI Auditory Verbal Learning Functional Test Test Name</CDISCSynonym><PreferredTerm>CDISC Functional Test ADNI AVLT Test Name Terminology</PreferredTerm></CodeList><CodeList OID="CL.C141655.AJCC1TC" Name="AJCC TNM Staging System 7th Edition Clinical Classification Test Code" DataType="text" nciodm:ExtCodeID="C141655" nciodm:CodeListExtensible="No"><Description><TranslatedText xml:lang="en">AJCC TNM Staging System 7th Edition test code.</TranslatedText></Description><EnumeratedItem CodedValue="AJCC101" nciodm:ExtCodeID="C141696"><CDISCSynonym>AJCC1-Primary Tumor (T)</CDISCSynonym><CDISCDefinition>AJCC TNM Staging System 7th Edition - Primary tumor (T).</CDISCDefinition><PreferredTerm>AJCC v7 - Primary Tumor (T)</PreferredTerm></EnumeratedItem><EnumeratedItem CodedValue="AJCC102" nciodm:ExtCodeID="C141697"><CDISCSynonym>AJCC1-Regional Lymph Nodes (N)</CDISCSynonym><CDISCDefinition>AJCC TNM Staging System 7th Edition - Regional lymph nodes (N).</CDISCDefinition><PreferredTerm>AJCC v7 - Regional Lymph Nodes (N)</PreferredTerm></EnumeratedItem><EnumeratedItem CodedValue="AJCC103" nciodm:ExtCodeID="C141698"><CDISCSynonym>AJCC1-Distant Metastasis (M)</CDISCSynonym><CDISCDefinition>AJCC TNM Staging System 7th Edition - Distant metastasis (M).</CDISCDefinition><PreferredTerm>AJCC v7 - Distant Metastasis (M)</PreferredTerm></EnumeratedItem><EnumeratedItem CodedValue="AJCC104" nciodm:ExtCodeID="C141699"><CDISCSynonym>AJCC1-Anatomic Stage</CDISCSynonym><CDISCDefinition>AJCC TNM Staging System 7th Edition - Anatomic stage.</CDISCDefinition><PreferredTerm>AJCC v7 - Anatomic Stage</PreferredTerm></EnumeratedItem><EnumeratedItem CodedValue="AJCC105" nciodm:ExtCodeID="C176205"><CDISCSynonym>AJCC1-Residual Tumor (R)</CDISCSynonym><CDISCDefinition>AJCC TNM Staging System 7th Edition - Residual tumor (R).</CDISCDefinition><PreferredTerm>AJCC v7 - Residual Tumor (R)</PreferredTerm></EnumeratedItem><CDISCSubmissionValue>AJCC1TC</CDISCSubmissionValue><CDISCSynonym>AJCC TNM Staging System 7th Edition Clinical Classification Test Code</CDISCSynonym><PreferredTerm>CDISC Clinical Classification AJCC v7 Test Code Terminology</PreferredTerm></CodeList><CodeList OID="CL.C141654.AJCC1TN" Name="AJCC TNM Staging System 7th Edition Clinical Classification Test Name" DataType="text" nciodm:ExtCodeID="C141654" nciodm:CodeListExtensible="No"><Description><TranslatedText xml:lang="en">AJCC TNM Staging System 7th Edition test name.</TranslatedText></Description><EnumeratedItem CodedValue="AJCC1-Anatomic Stage" nciodm:ExtCodeID="C141699"><CDISCSynonym>AJCC1-Anatomic Stage</CDISCSynonym><CDISCDefinition>AJCC TNM Staging System 7th Edition - Anatomic stage.</CDISCDefinition><PreferredTerm>AJCC v7 - Anatomic Stage</PreferredTerm></EnumeratedItem><EnumeratedItem CodedValue="AJCC1-Distant Metastasis (M)" nciodm:ExtCodeID="C141698"><CDISCSynonym>AJCC1-Distant Metastasis (M)</CDISCSynonym><CDISCDefinition>AJCC TNM Staging System 7th Edition - Distant metastasis (M).</CDISCDefinition><PreferredTerm>AJCC v7 - Distant Metastasis (M)</PreferredTerm></EnumeratedItem><EnumeratedItem CodedValue="AJCC1-Primary Tumor (T)" nciodm:ExtCodeID="C141696"><CDISCSynonym>AJCC1-Primary Tumor (T)</CDISCSynonym><CDISCDefinition>AJCC TNM Staging System 7th Edition - Primary tumor (T).</CDISCDefinition><PreferredTerm>AJCC v7 - Primary Tumor (T)</PreferredTerm></EnumeratedItem><EnumeratedItem CodedValue="AJCC1-Regional Lymph Nodes (N)" nciodm:ExtCodeID="C141697"><CDISCSynonym>AJCC1-Regional Lymph Nodes (N)</CDISCSynonym><CDISCDefinition>AJCC TNM Staging System 7th Edition - Regional lymph nodes (N).</CDISCDefinition><PreferredTerm>AJCC v7 - Regional Lymph Nodes (N)</PreferredTerm></EnumeratedItem><EnumeratedItem CodedValue="AJCC1-Residual Tumor (R)" nciodm:ExtCodeID="C176205"><CDISCSynonym>AJCC1-Residual Tumor (R)</CDISCSynonym><CDISCDefinition>AJCC TNM Staging System 7th Edition - Residual tumor (R).</CDISCDefinition><PreferredTerm>AJCC v7 - Residual Tumor (R)</PreferredTerm></EnumeratedItem><CDISCSubmissionValue>AJCC1TN</CDISCSubmissionValue><CDISCSynonym>AJCC TNM Staging System 7th Edition Clinical Classification Test Name</CDISCSynonym><PreferredTerm>CDISC Clinical Classification AJCC v7 Test Name Terminology</PreferredTerm></CodeList><CodeList OID="CL.C135012.AJCCGRD" Name="AJCC Tumor Grade Response" DataType="text" nciodm:ExtCodeID="C135012" nciodm:CodeListExtensible="No"><Description><TranslatedText xml:lang="en">Terminology relevant to the American Joint Committee on Cancer (AJCC) tumor grading system responses.</TranslatedText></Description><EnumeratedItem CodedValue="GRADE 1" nciodm:ExtCodeID="C28077"><CDISCSynonym>G1</CDISCSynonym><CDISCDefinition>A morphologic qualifier by the American Joint Cancer Committee (AJCC) indicating that a cancerous lesion is well differentiated. (American Joint Committee on Cancer. AJCC Cancer Staging Manual. 7th ed. New York, NY: Springer; 2010.)</CDISCDefinition><PreferredTerm>Grade 1</PreferredTerm></EnumeratedItem><EnumeratedItem CodedValue="GRADE 2" nciodm:ExtCodeID="C28078"><CDISCSynonym>G2</CDISCSynonym><CDISCDefinition>A morphologic qualifier by the American Joint Cancer Committee (AJCC) indicating that a cancerous lesion is moderately differentiated. (American Joint Committee on Cancer. AJCC Cancer Staging Manual. 7th ed. New York, NY: Springer; 2010.)</CDISCDefinition><PreferredTerm>Grade 2</PreferredTerm></EnumeratedItem><EnumeratedItem CodedValue="GRADE 3" nciodm:ExtCodeID="C28079"><CDISCSynonym>G3</CDISCSynonym><CDISCDefinition>A morphologic qualifier by the American Joint Cancer Committee (AJCC) indicating that a cancerous lesion is poorly differentiated. (American Joint Committee on Cancer. AJCC Cancer Staging Manual. 7th ed. New York, NY: Springer; 2010.)</CDISCDefinition><PreferredTerm>Grade 3</PreferredTerm></EnumeratedItem><EnumeratedItem CodedValue="GRADE 4" nciodm:ExtCodeID="C28082"><CDISCSynonym>G4</CDISCSynonym><CDISCDefinition>A morphologic qualifier by the American Joint Cancer Committee (AJCC) indicating that a cancerous lesion is undifferentiated. (American Joint Committee on Cancer. AJCC Cancer Staging Manual. 7th ed. New York, NY: Springer; 2010.)</CDISCDefinition><PreferredTerm>Grade 4</PreferredTerm></EnumeratedItem><EnumeratedItem CodedValue="GRADE X" nciodm:ExtCodeID="C113730"><CDISCSynonym>GX</CDISCSynonym><CDISCDefinition>A morphologic qualifier by the American Joint Cancer Committee (AJCC) indicating that the grade of a cancerous lesion cannot be assessed. (American Joint Committee on Cancer. AJCC Cancer Staging Manual. 7th ed. New York, NY: Springer; 2010.)</CDISCDefinition><PreferredTerm>Grade X</PreferredTerm></EnumeratedItem><CDISCSubmissionValue>AJCCGRD</CDISCSubmissionValue><CDISCSynonym>AJCC Tumor Grade Response</CDISCSynonym><PreferredTerm>CDISC SDTM AJCC Tumor Grade Response Terminology</PreferredTerm></CodeList><CodeList OID="CL.C124668.ASSG01TC" Name="ASSIGN Cardiovascular Disease 10-Year Risk Score Clinical Classification Test Code" DataType="text" nciodm:ExtCodeID="C124668" nciodm:CodeListExtensible="No"><Description><TranslatedText xml:lang="en">ASSIGN Cardiovascular Disease 10-Year Risk Score test code.</TranslatedText></Description><EnumeratedItem CodedValue="ASSG0101" nciodm:ExtCodeID="C124721"><CDISCSynonym>ASSG01-ASSIGN Score</CDISCSynonym><CDISCDefinition>ASSIGN Cardiovascular Disease 10-Year Risk Score - ASSIGN score.</CDISCDefinition><PreferredTerm>ASSIGN Score - Risk Score</PreferredTerm></EnumeratedItem><CDISCSubmissionValue>ASSG01TC</CDISCSubmissionValue><CDISCSynonym>ASSIGN Cardiovascular Disease 10-Year Risk Score Clinical Classification Test Code</CDISCSynonym><PreferredTerm>CDISC Clinical Classification ASSIGN Score Test Code Terminology</PreferredTerm></CodeList><CodeList OID="CL.C124667.ASSG01TN" Name="ASSIGN Cardiovascular Disease 10-Year Risk Score Clinical Classification Test Name" DataType="text" nciodm:ExtCodeID="C124667" nciodm:CodeListExtensible="No"><Description><TranslatedText xml:lang="en">ASSIGN Cardiovascular Disease 10-Year Risk Score test name.</TranslatedText></Description><EnumeratedItem CodedValue="ASSG01-ASSIGN Score" nciodm:ExtCodeID="C124721"><CDISCSynonym>ASSG01-ASSIGN Score</CDISCSynonym><CDISCDefinition>ASSIGN Cardiovascular Disease 10-Year Risk Score - ASSIGN score.</CDISCDefinition><PreferredTerm>ASSIGN Score - Risk Score</PreferredTerm></EnumeratedItem><CDISCSubmissionValue>ASSG01TN</CDISCSubmissionValue><CDISCSynonym>ASSIGN Cardiovascular Disease 10-Year Risk Score Clinical Classification Test Name</CDISCSynonym><PreferredTerm>CDISC Clinical Classification ASSIGN Score Test Name Terminology</PreferredTerm></CodeList><CodeList OID="CL.C147538.ATLAS1TC" Name="ATLAS Clinical Classification Test Code" DataType="text" nciodm:ExtCodeID="C147538" nciodm:CodeListExtensible="No"><Description><TranslatedText xml:lang="en">ATLAS test code.</TranslatedText></Description><EnumeratedItem CodedValue="ATLAS101" nciodm:ExtCodeID="C147843"><CDISCSynonym>ATLAS1-Age</CDISCSynonym><CDISCDefinition>Age, treatment with systemic antibiotics, leukocyte count, serum albumin, and serum creatinine as a measure of renal function - Age.</CDISCDefinition><PreferredTerm>ATLAS - Age</PreferredTerm></EnumeratedItem><EnumeratedItem CodedValue="ATLAS102" nciodm:ExtCodeID="C147844"><CDISCSynonym>ATLAS1-Treatment With Antibiotics</CDISCSynonym><CDISCDefinition>Age, treatment with systemic antibiotics, leukocyte count, serum albumin, and serum creatinine as a measure of renal function - Treatment with systemic antibiotics during CDI therapy (&gt;= 1 day).</CDISCDefinition><PreferredTerm>ATLAS - Treatment With Antibiotics</PreferredTerm></EnumeratedItem><EnumeratedItem CodedValue="ATLAS103" nciodm:ExtCodeID="C147845"><CDISCSynonym>ATLAS1-Leukocyte Count</CDISCSynonym><CDISCDefinition>Age, treatment with systemic antibiotics, leukocyte count, serum albumin, and serum creatinine as a measure of renal function - Leukocyte count (total).</CDISCDefinition><PreferredTerm>ATLAS - Leukocyte Count</PreferredTerm></EnumeratedItem><EnumeratedItem CodedValue="ATLAS104" nciodm:ExtCodeID="C147846"><CDISCSynonym>ATLAS1-Albumin</CDISCSynonym><CDISCDefinition>Age, treatment with systemic antibiotics, leukocyte count, serum albumin, and serum creatinine as a measure of renal function - Albumin (serum).</CDISCDefinition><PreferredTerm>ATLAS - Albumin</PreferredTerm></EnumeratedItem><EnumeratedItem CodedValue="ATLAS105" nciodm:ExtCodeID="C147847"><CDISCSynonym>ATLAS1-Serum Creatinine</CDISCSynonym><CDISCDefinition>Age, treatment with systemic antibiotics, leukocyte count, serum albumin, and serum creatinine as a measure of renal function - Serum creatinine (as a measure of renal function).</CDISCDefinition><PreferredTerm>ATLAS - Serum Creatinine</PreferredTerm></EnumeratedItem><EnumeratedItem CodedValue="ATLAS106" nciodm:ExtCodeID="C147848"><CDISCSynonym>ATLAS1-Score</CDISCSynonym><CDISCDefinition>Age, treatment with systemic antibiotics, leukocyte count, serum albumin, and serum creatinine as a measure of renal function - Score.</CDISCDefinition><PreferredTerm>ATLAS - Score</PreferredTerm></EnumeratedItem><CDISCSubmissionValue>ATLAS1TC</CDISCSubmissionValue><CDISCSynonym>ATLAS Clinical Classification Test Code</CDISCSynonym><PreferredTerm>CDISC Clinical Classification ATLAS Test Code Terminology</PreferredTerm></CodeList><CodeList OID="CL.C147537.ATLAS1TN" Name="ATLAS Clinical Classification Test Name" DataType="text" nciodm:ExtCodeID="C147537" nciodm:CodeListExtensible="No"><Description><TranslatedText xml:lang="en">ATLAS test name.</TranslatedText></Description><EnumeratedItem CodedValue="ATLAS1-Age" nciodm:ExtCodeID="C147843"><CDISCSynonym>ATLAS1-Age</CDISCSynonym><CDISCDefinition>Age, treatment with systemic antibiotics, leukocyte count, serum albumin, and serum creatinine as a measure of renal function - Age.</CDISCDefinition><PreferredTerm>ATLAS - Age</PreferredTerm></EnumeratedItem><EnumeratedItem CodedValue="ATLAS1-Albumin" nciodm:ExtCodeID="C147846"><CDISCSynonym>ATLAS1-Albumin</CDISCSynonym><CDISCDefinition>Age, treatment with systemic antibiotics, leukocyte count, serum albumin, and serum creatinine as a measure of renal function - Albumin (serum).</CDISCDefinition><PreferredTerm>ATLAS - Albumin</PreferredTerm></EnumeratedItem><EnumeratedItem CodedValue="ATLAS1-Leukocyte Count" nciodm:ExtCodeID="C147845"><CDISCSynonym>ATLAS1-Leukocyte Count</CDISCSynonym><CDISCDefinition>Age, treatment with systemic antibiotics, leukocyte count, serum albumin, and serum creatinine as a measure of renal function - Leukocyte count (total).</CDISCDefinition><PreferredTerm>ATLAS - Leukocyte Count</PreferredTerm></EnumeratedItem><EnumeratedItem CodedValue="ATLAS1-Score" nciodm:ExtCodeID="C147848"><CDISCSynonym>ATLAS1-Score</CDISCSynonym><CDISCDefinition>Age, treatment with systemic antibiotics, leukocyte count, serum albumin, and serum creatinine as a measure of renal function - Score.</CDISCDefinition><PreferredTerm>ATLAS - Score</PreferredTerm></EnumeratedItem><EnumeratedItem CodedValue="ATLAS1-Serum Creatinine" nciodm:ExtCodeID="C147847"><CDISCSynonym>ATLAS1-Serum Creatinine</CDISCSynonym><CDISCDefinition>Age, treatment with systemic antibiotics, leukocyte count, serum albumin, and serum creatinine as a measure of renal function - Serum creatinine (as a measure of renal function).</CDISCDefinition><PreferredTerm>ATLAS - Serum Creatinine</PreferredTerm></EnumeratedItem><EnumeratedItem CodedValue="ATLAS1-Treatment With Antibiotics" nciodm:ExtCodeID="C147844"><CDISCSynonym>ATLAS1-Treatment With Antibiotics</CDISCSynonym><CDISCDefinition>Age, treatment with systemic antibiotics, leukocyte count, serum albumin, and serum creatinine as a measure of renal function - Treatment with systemic antibiotics during CDI therapy (&gt;= 1 day).</CDISCDefinition><PreferredTerm>ATLAS - Treatment With Antibiotics</PreferredTerm></EnumeratedItem><CDISCSubmissionValue>ATLAS1TN</CDISCSubmissionValue><CDISCSynonym>ATLAS Clinical Classification Test Name</CDISCSynonym><PreferredTerm>CDISC Clinical Classification ATLAS Test Name Terminology</PreferredTerm></CodeList><CodeList OID="CL.C101805.AIMS01TC" Name="Abnormal Involuntary Movement Scale Clinical Classification Test Code" DataType="text" nciodm:ExtCodeID="C101805" nciodm:CodeListExtensible="No"><Description><TranslatedText xml:lang="en">Abnormal Involuntary Movement Scale test code.</TranslatedText></Description><EnumeratedItem CodedValue="AIMS0101" nciodm:ExtCodeID="C102034"><CDISCSynonym>AIMS01-Muscles of Facial Expression</CDISCSynonym><CDISCDefinition>Abnormal Involuntary Movement Scale - Facial and Oral Movements, Muscles of facial expression, e.g., movements of forehead, eyebrows, periorbital area, cheeks. Include frowning, blinking, grimacing of upper face.</CDISCDefinition><PreferredTerm>AIMS - Muscles of Facial Expression</PreferredTerm></EnumeratedItem><EnumeratedItem CodedValue="AIMS0102" nciodm:ExtCodeID="C102035"><CDISCSynonym>AIMS01-Lips and Perioral Area</CDISCSynonym><CDISCDefinition>Abnormal Involuntary Movement Scale - Facial and Oral Movements, Lips and perioral area, e.g., puckering, pouting, smacking.</CDISCDefinition><PreferredTerm>AIMS - Lips and Perioral Area</PreferredTerm></EnumeratedItem><EnumeratedItem CodedValue="AIMS0103" nciodm:ExtCodeID="C102036"><CDISCSynonym>AIMS01-Jaw</CDISCSynonym><CDISCDefinition>Abnormal Involuntary Movement Scale - Facial and Oral Movements, Jaw, e.g., biting, clenching, chewing, mouth opening, lateral movement.</CDISCDefinition><PreferredTerm>AIMS - Jaw</PreferredTerm></EnumeratedItem><EnumeratedItem CodedValue="AIMS0104" nciodm:ExtCodeID="C102037"><CDISCSynonym>AIMS01-Tongue</CDISCSynonym><CDISCDefinition>Abnormal Involuntary Movement Scale - Facial and Oral Movements, Tongue. Rate only increase in movement both in and out of mouth, not inability to sustain movement.</CDISCDefinition><PreferredTerm>AIMS - Tongue</PreferredTerm></EnumeratedItem><EnumeratedItem CodedValue="AIMS0105" nciodm:ExtCodeID="C102038"><CDISCSynonym>AIMS01-Upper Extremities</CDISCSynonym><CDISCDefinition>Abnormal Involuntary Movement Scale - Extremity Movements, Upper (arms, wrists, hands, fingers). Include movements that are choreic (rapid, objectively purposeless, irregular, spontaneous) or athetoid (slow, irregular, complex, serpentine). Do not include tremor (repetitive, regular, rhythmic movements).</CDISCDefinition><PreferredTerm>AIMS - Upper Extremities</PreferredTerm></EnumeratedItem><EnumeratedItem CodedValue="AIMS0106" nciodm:ExtCodeID="C102039"><CDISCSynonym>AIMS01-Lower Extremities</CDISCSynonym><CDISCDefinition>Abnormal Involuntary Movement Scale - Extremity Movements, Lower (legs, knees, ankles, toes), e.g., lateral knee movement, foot tapping, heel dropping, foot squirming, inversion and eversion of foot.</CDISCDefinition><PreferredTerm>AIMS - Lower Extremities</PreferredTerm></EnumeratedItem><EnumeratedItem CodedValue="AIMS0107" nciodm:ExtCodeID="C102040"><CDISCSynonym>AIMS01-Neck, Shoulders, Hips</CDISCSynonym><CDISCDefinition>Abnormal Involuntary Movement Scale - Trunk Movements, Neck, shoulders, hips, e.g., rocking, twisting, squirming, pelvic gyrations. Include diaphragmatic movements.</CDISCDefinition><PreferredTerm>AIMS - Neck, Shoulders, Hips</PreferredTerm></EnumeratedItem><EnumeratedItem CodedValue="AIMS0108" nciodm:ExtCodeID="C102041"><CDISCSynonym>AIMS01-Severity of Abnormal Movements</CDISCSynonym><CDISCDefinition>Abnormal Involuntary Movement Scale - Global Judgments, Severity of abnormal movements, based on the highest single score on the above items.</CDISCDefinition><PreferredTerm>AIMS - Severity of Abnormal Movements</PreferredTerm></EnumeratedItem><EnumeratedItem CodedValue="AIMS0109" nciodm:ExtCodeID="C102042"><CDISCSynonym>AIMS01-Incapacitation due Abn Movements</CDISCSynonym><CDISCDefinition>Abnormal Involuntary Movement Scale - Global Judgments, Incapacitation due to abnormal movements.</CDISCDefinition><PreferredTerm>AIMS - Incapacitation Due to Abnormal Movements</PreferredTerm></EnumeratedItem><EnumeratedItem CodedValue="AIMS0110" nciodm:ExtCodeID="C102043"><CDISCSynonym>AIMS01-Patient Awareness Abn Movements</CDISCSynonym><CDISCDefinition>Abnormal Involuntary Movement Scale - Global Judgments, Patient's awareness of abnormal movements.</CDISCDefinition><PreferredTerm>AIMS - Patient's Awareness of Abnormal Movements</PreferredTerm></EnumeratedItem><EnumeratedItem CodedValue="AIMS0111" nciodm:ExtCodeID="C102044"><CDISCSynonym>AIMS01-Current Problems Teeth/Dentures</CDISCSynonym><CDISCDefinition>Abnormal Involuntary Movement Scale - Dental Status, Current problems with teeth and/or dentures.</CDISCDefinition><PreferredTerm>AIMS - Current Teeth/Dentures Problems</PreferredTerm></EnumeratedItem><EnumeratedItem CodedValue="AIMS0112" nciodm:ExtCodeID="C102045"><CDISCSynonym>AIMS01-Patient Usually Wear Dentures</CDISCSynonym><CDISCDefinition>Abnormal Involuntary Movement Scale - Dental Status, Does patient usually wear dentures?</CDISCDefinition><PreferredTerm>AIMS - Patient Usually Wears Dentures</PreferredTerm></EnumeratedItem><CDISCSubmissionValue>AIMS01TC</CDISCSubmissionValue><CDISCSynonym>Abnormal Involuntary Movement Scale Clinical Classification Test Code</CDISCSynonym><PreferredTerm>CDISC Clinical Classification AIMS Test Code Terminology</PreferredTerm></CodeList><CodeList OID="CL.C101806.AIMS01TN" Name="Abnormal Involuntary Movement Scale Clinical Classification Test Name" DataType="text" nciodm:ExtCodeID="C101806" nciodm:CodeListExtensible="No"><Description><TranslatedText xml:lang="en">Abnormal Involuntary Movement Scale test name.</TranslatedText></Description><EnumeratedItem CodedValue="AIMS01-Current Problems Teeth/Dentures" nciodm:ExtCodeID="C102044"><CDISCSynonym>AIMS01-Current Problems Teeth/Dentures</CDISCSynonym><CDISCDefinition>Abnormal Involuntary Movement Scale - Dental Status, Current problems with teeth and/or dentures.</CDISCDefinition><PreferredTerm>AIMS - Current Teeth/Dentures Problems</PreferredTerm></EnumeratedItem><EnumeratedItem CodedValue="AIMS01-Incapacitation due Abn Movements" nciodm:ExtCodeID="C102042"><CDISCSynonym>AIMS01-Incapacitation due Abn Movements</CDISCSynonym><CDISCDefinition>Abnormal Involuntary Movement Scale - Global Judgments, Incapacitation due to abnormal movements.</CDISCDefinition><PreferredTerm>AIMS - Incapacitation Due to Abnormal Movements</PreferredTerm></EnumeratedItem><EnumeratedItem CodedValue="AIMS01-Jaw" nciodm:ExtCodeID="C102036"><CDISCSynonym>AIMS01-Jaw</CDISCSynonym><CDISCDefinition>Abnormal Involuntary Movement Scale - Facial and Oral Movements, Jaw, e.g., biting, clenching, chewing, mouth opening, lateral movement.</CDISCDefinition><PreferredTerm>AIMS - Jaw</PreferredTerm></EnumeratedItem><EnumeratedItem CodedValue="AIMS01-Lips and Perioral Area" nciodm:ExtCodeID="C102035"><CDISCSynonym>AIMS01-Lips and Perioral Area</CDISCSynonym><CDISCDefinition>Abnormal Involuntary Movement Scale - Facial and Oral Movements, Lips and perioral area, e.g., puckering, pouting, smacking.</CDISCDefinition><PreferredTerm>AIMS - Lips and Perioral Area</PreferredTerm></EnumeratedItem><EnumeratedItem CodedValue="AIMS01-Lower Extremities" nciodm:ExtCodeID="C102039"><CDISCSynonym>AIMS01-Lower Extremities</CDISCSynonym><CDISCDefinition>Abnormal Involuntary Movement Scale - Extremity Movements, Lower (legs, knees, ankles, toes), e.g., lateral knee movement, foot tapping, heel dropping, foot squirming, inversion and eversion of foot.</CDISCDefinition><PreferredTerm>AIMS - Lower Extremities</PreferredTerm></EnumeratedItem><EnumeratedItem CodedValue="AIMS01-Muscles of Facial Expression" nciodm:ExtCodeID="C102034"><CDISCSynonym>AIMS01-Muscles of Facial Expression</CDISCSynonym><CDISCDefinition>Abnormal Involuntary Movement Scale - Facial and Oral Movements, Muscles of facial expression, e.g., movements of forehead, eyebrows, periorbital area, cheeks. Include frowning, blinking, grimacing of upper face.</CDISCDefinition><PreferredTerm>AIMS - Muscles of Facial Expression</PreferredTerm></EnumeratedItem><EnumeratedItem CodedValue="AIMS01-Neck, Shoulders, Hips" nciodm:ExtCodeID="C102040"><CDISCSynonym>AIMS01-Neck, Shoulders, Hips</CDISCSynonym><CDISCDefinition>Abnormal Involuntary Movement Scale - Trunk Movements, Neck, shoulders, hips, e.g., rocking, twisting, squirming, pelvic gyrations. Include diaphragmatic movements.</CDISCDefinition><PreferredTerm>AIMS - Neck, Shoulders, Hips</PreferredTerm></EnumeratedItem><EnumeratedItem CodedValue="AIMS01-Patient Awareness Abn Movements" nciodm:ExtCodeID="C102043"><CDISCSynonym>AIMS01-Patient Awareness Abn Movements</CDISCSynonym><CDISCDefinition>Abnormal Involuntary Movement Scale - Global Judgments, Patient's awareness of abnormal movements.</CDISCDefinition><PreferredTerm>AIMS - Patient's Awareness of Abnormal Movements</PreferredTerm></EnumeratedItem><EnumeratedItem CodedValue="AIMS01-Patient Usually Wear Dentures" nciodm:ExtCodeID="C102045"><CDISCSynonym>AIMS01-Patient Usually Wear Dentures</CDISCSynonym><CDISCDefinition>Abnormal Involuntary Movement Scale - Dental Status, Does patient usually wear dentures?</CDISCDefinition><PreferredTerm>AIMS - Patient Usually Wears Dentures</PreferredTerm></EnumeratedItem><EnumeratedItem CodedValue="AIMS01-Severity of Abnormal Movements" nciodm:ExtCodeID="C102041"><CDISCSynonym>AIMS01-Severity of Abnormal Movements</CDISCSynonym><CDISCDefinition>Abnormal Involuntary Movement Scale - Global Judgments, Severity of abnormal movements, based on the highest single score on the above items.</CDISCDefinition><PreferredTerm>AIMS - Severity of Abnormal Movements</PreferredTerm></EnumeratedItem><EnumeratedItem CodedValue="AIMS01-Tongue" nciodm:ExtCodeID="C102037"><CDISCSynonym>AIMS01-Tongue</CDISCSynonym><CDISCDefinition>Abnormal Involuntary Movement Scale - Facial and Oral Movements, Tongue. Rate only increase in movement both in and out of mouth, not inability to sustain movement.</CDISCDefinition><PreferredTerm>AIMS - Tongue</PreferredTerm></EnumeratedItem><EnumeratedItem CodedValue="AIMS01-Upper Extremities" nciodm:ExtCodeID="C102038"><CDISCSynonym>AIMS01-Upper Extremities</CDISCSynonym><CDISCDefinition>Abnormal Involuntary Movement Scale - Extremity Movements, Upper (arms, wrists, hands, fingers). Include movements that are choreic (rapid, objectively purposeless, irregular, spontaneous) or athetoid (slow, irregular, complex, serpentine). Do not include tremor (repetitive, regular, rhythmic movements).</CDISCDefinition><PreferredTerm>AIMS - Upper Extremities</PreferredTerm></EnumeratedItem><CDISCSubmissionValue>AIMS01TN</CDISCSubmissionValue><CDISCSynonym>Abnormal Involuntary Movement Scale Clinical Classification Test Name</CDISCSynonym><PreferredTerm>CDISC Clinical Classification AIMS Test Name Terminology</PreferredTerm></CodeList><CodeList OID="CL.C66767.ACN" Name="Action Taken with Study Treatment" DataType="text" nciodm:ExtCodeID="C66767" nciodm:CodeListExtensible="No"><Description><TranslatedText xml:lang="en">Terminology specifying changes to the study treatment as a result of an adverse event.</TranslatedText></Description><EnumeratedItem CodedValue="DOSE INCREASED" nciodm:ExtCodeID="C49503"><CDISCDefinition>An indication that a medication schedule was modified by addition; either by changing the frequency, strength or amount. (NCI)</CDISCDefinition><PreferredTerm>Dose Increased</PreferredTerm></EnumeratedItem><EnumeratedItem CodedValue="DOSE NOT CHANGED" nciodm:ExtCodeID="C49504"><CDISCDefinition>An indication that a medication schedule was maintained. (NCI)</CDISCDefinition><PreferredTerm>Dose Not Changed</PreferredTerm></EnumeratedItem><EnumeratedItem CodedValue="DOSE RATE REDUCED" nciodm:ExtCodeID="C150826"><CDISCDefinition>An indication that the administration of a medication was modified by reducing the rate at which the dose was given, without reducing the total dose administered.</CDISCDefinition><PreferredTerm>Dose Rate Reduced</PreferredTerm></EnumeratedItem><EnumeratedItem CodedValue="DOSE REDUCED" nciodm:ExtCodeID="C49505"><CDISCDefinition>An indication that a medication schedule was modified by subtraction, either by changing the frequency, strength or amount. (NCI)</CDISCDefinition><PreferredTerm>Dose Reduced</PreferredTerm></EnumeratedItem><EnumeratedItem CodedValue="DRUG INTERRUPTED" nciodm:ExtCodeID="C49501"><CDISCDefinition>An indication that a medication schedule was modified by temporarily terminating a prescribed regimen of medication. (NCI)</CDISCDefinition><PreferredTerm>Drug Interrupted</PreferredTerm></EnumeratedItem><EnumeratedItem CodedValue="DRUG WITHDRAWN" nciodm:ExtCodeID="C49502"><CDISCDefinition>An indication that a medication schedule was modified through termination of a prescribed regimen of medication. (NCI)</CDISCDefinition><PreferredTerm>Drug Withdrawn</PreferredTerm></EnumeratedItem><EnumeratedItem CodedValue="NOT APPLICABLE" nciodm:ExtCodeID="C48660"><CDISCSynonym>NA</CDISCSynonym><CDISCSynonym>Not Applicable</CDISCSynonym><CDISCDefinition>Determination of a value is not relevant in the current context. (NCI)</CDISCDefinition><PreferredTerm>Not Applicable</PreferredTerm></EnumeratedItem><EnumeratedItem CodedValue="UNKNOWN" nciodm:ExtCodeID="C17998"><CDISCSynonym>U</CDISCSynonym><CDISCSynonym>UNK</CDISCSynonym><CDISCSynonym>Unknown</CDISCSynonym><CDISCDefinition>Not known, not observed, not recorded, or refused. (NCI)</CDISCDefinition><PreferredTerm>Unknown</PreferredTerm></EnumeratedItem><CDISCSubmissionValue>ACN</CDISCSubmissionValue><CDISCSynonym>Action Taken with Study Treatment</CDISCSynonym><PreferredTerm>CDISC SDTM Action Taken with Study Treatment Terminology</PreferredTerm></CodeList><CodeList OID="CL.C101865.ACSPCAT" Name="Acute Coronary Syndrome Presentation Category" DataType="text" nciodm:ExtCodeID="C101865" nciodm:CodeListExtensible="No"><Description><TranslatedText xml:lang="en">A classification of the presentation of acute coronary syndrome.</TranslatedText></Description><EnumeratedItem CodedValue="NON-ST ELEVATION MYOCARDIAL INFARCTION" nciodm:ExtCodeID="C80383"><CDISCSynonym>NON-STEMI</CDISCSynonym><CDISCSynonym>NSTEMI</CDISCSynonym><CDISCDefinition>A myocardial infarction that does not produce elevation in the ST segments of the ECG.</CDISCDefinition><PreferredTerm>Non-ST Elevation Myocardial Infarction by ECG Finding</PreferredTerm></EnumeratedItem><EnumeratedItem CodedValue="OTHER" nciodm:ExtCodeID="C17649"><CDISCSynonym>Other</CDISCSynonym><CDISCDefinition>Different than the one(s) previously specified or mentioned. (NCI)</CDISCDefinition><PreferredTerm>Other</PreferredTerm></EnumeratedItem><EnumeratedItem CodedValue="ST ELEVATION MYOCARDIAL INFARCTION" nciodm:ExtCodeID="C101888"><CDISCSynonym>STEMI</CDISCSynonym><CDISCDefinition>A myocardial infarction that produces elevation in the ST segments of the ECG.</CDISCDefinition><PreferredTerm>ST Elevation Myocardial Infarction by ECG Finding</PreferredTerm></EnumeratedItem><EnumeratedItem CodedValue="STABLE ANGINA" nciodm:ExtCodeID="C66914"><CDISCDefinition>Angina pectoris which has not recently changed in frequency, duration or intensity. Stable angina pectoris is relieved by rest or administration of oral, sublingual or transdermal antianginal medications.</CDISCDefinition><PreferredTerm>Stable Angina</PreferredTerm></EnumeratedItem><EnumeratedItem CodedValue="UNSTABLE ANGINA" nciodm:ExtCodeID="C66911"><CDISCDefinition>Angina pectoris (or equivalent type of ischemic discomfort) which has recently changed in frequency, duration, intensity, or occurs at rest.</CDISCDefinition><PreferredTerm>Unstable Angina</PreferredTerm></EnumeratedItem><CDISCSubmissionValue>ACSPCAT</CDISCSubmissionValue><CDISCSynonym>Acute Coronary Syndrome Presentation Category</CDISCSynonym><PreferredTerm>CDISC SDTM Acute Coronary Syndrome Presentation Category Terminology</PreferredTerm></CodeList><CodeList OID="CL.C120985.APCH1TC" Name="Acute Physiology and Chronic Health Evaluation II Clinical Classification Test Code" DataType="text" nciodm:ExtCodeID="C120985" nciodm:CodeListExtensible="No"><Description><TranslatedText xml:lang="en">Acute Physiology and Chronic Health Evaluation II test code.</TranslatedText></Description><EnumeratedItem CodedValue="APCH101" nciodm:ExtCodeID="C121096"><CDISCSynonym>APCH1-Temperature - Rectal</CDISCSynonym><CDISCDefinition>Acute Physiology and Chronic Health Evaluation II - Temperature - rectal (degree C).</CDISCDefinition><PreferredTerm>APACHE II - Temperature, Rectal</PreferredTerm></EnumeratedItem><EnumeratedItem CodedValue="APCH102" nciodm:ExtCodeID="C121097"><CDISCSynonym>APCH1-Mean Arterial Pressure</CDISCSynonym><CDISCDefinition>Acute Physiology and Chronic Health Evaluation II - Mean arterial pressure - mmHg.</CDISCDefinition><PreferredTerm>APACHE II - Mean Arterial Pressure</PreferredTerm></EnumeratedItem><EnumeratedItem CodedValue="APCH103" nciodm:ExtCodeID="C121098"><CDISCSynonym>APCH1-Heart Rate</CDISCSynonym><CDISCDefinition>Acute Physiology and Chronic Health Evaluation II - Heart rate (ventricular response).</CDISCDefinition><PreferredTerm>APACHE II - Heart Rate</PreferredTerm></EnumeratedItem><EnumeratedItem CodedValue="APCH104" nciodm:ExtCodeID="C121099"><CDISCSynonym>APCH1-Respiratory Rate</CDISCSynonym><CDISCDefinition>Acute Physiology and Chronic Health Evaluation II - Respiratory rate (non-ventilated or ventilated).</CDISCDefinition><PreferredTerm>APACHE II - Respiratory Rate</PreferredTerm></EnumeratedItem><EnumeratedItem CodedValue="APCH105A" nciodm:ExtCodeID="C121100"><CDISCSynonym>APCH1-Oxygenation: A-aDO2</CDISCSynonym><CDISCDefinition>Acute Physiology and Chronic Health Evaluation II - Oxygenation (mmHg): FIO2 greater than or equal to 0.5 record A-aDO2.</CDISCDefinition><PreferredTerm>APACHE II - Oxygenation, A-aDO2</PreferredTerm></EnumeratedItem><EnumeratedItem CodedValue="APCH105B" nciodm:ExtCodeID="C121101"><CDISCSynonym>APCH1-Oxygenation: PaO2</CDISCSynonym><CDISCDefinition>Acute Physiology and Chronic Health Evaluation II - Oxygenation (mmHg): FIO2 less than 0.5 record only PaO2.</CDISCDefinition><PreferredTerm>APACHE II - Oxygenation, PaO2</PreferredTerm></EnumeratedItem><EnumeratedItem CodedValue="APCH106A" nciodm:ExtCodeID="C121102"><CDISCSynonym>APCH1-Arterial pH</CDISCSynonym><CDISCDefinition>Acute Physiology and Chronic Health Evaluation II - Arterial pH (preferred).</CDISCDefinition><PreferredTerm>APACHE II - Arterial pH</PreferredTerm></EnumeratedItem><EnumeratedItem CodedValue="APCH106B" nciodm:ExtCodeID="C121103"><CDISCSynonym>APCH1-Serum HCO3</CDISCSynonym><CDISCDefinition>Acute Physiology and Chronic Health Evaluation II - Serum HCO3 (venous mMol/L) (Not preferred, use if no ABGs).</CDISCDefinition><PreferredTerm>APACHE II - Serum HCO3</PreferredTerm></EnumeratedItem><EnumeratedItem CodedValue="APCH107" nciodm:ExtCodeID="C121104"><CDISCSynonym>APCH1-Serum Sodium</CDISCSynonym><CDISCDefinition>Acute Physiology and Chronic Health Evaluation II - Serum sodium (mMol/L).</CDISCDefinition><PreferredTerm>APACHE II - Serum Sodium</PreferredTerm></EnumeratedItem><EnumeratedItem CodedValue="APCH108" nciodm:ExtCodeID="C121105"><CDISCSynonym>APCH1-Serum Potassium</CDISCSynonym><CDISCDefinition>Acute Physiology and Chronic Health Evaluation II - Serum potassium (mMol/L).</CDISCDefinition><PreferredTerm>APACHE II - Serum Potassium</PreferredTerm></EnumeratedItem><EnumeratedItem CodedValue="APCH109" nciodm:ExtCodeID="C121106"><CDISCSynonym>APCH1-Serum Creatinine</CDISCSynonym><CDISCDefinition>Acute Physiology and Chronic Health Evaluation II - Serum creatinine (mg/100 mL) (double point score for acute renal failure).</CDISCDefinition><PreferredTerm>APACHE II - Serum Creatinine</PreferredTerm></EnumeratedItem><EnumeratedItem CodedValue="APCH110" nciodm:ExtCodeID="C121107"><CDISCSynonym>APCH1-Hematocrit</CDISCSynonym><CDISCDefinition>Acute Physiology and Chronic Health Evaluation II - Hematocrit (%).</CDISCDefinition><PreferredTerm>APACHE II - Hematocrit</PreferredTerm></EnumeratedItem><EnumeratedItem CodedValue="APCH111" nciodm:ExtCodeID="C121108"><CDISCSynonym>APCH1-White Blood Count</CDISCSynonym><CDISCDefinition>Acute Physiology and Chronic Health Evaluation II - White blood count (total/mm3) (in 1,000s).</CDISCDefinition><PreferredTerm>APACHE II - White Blood Count</PreferredTerm></EnumeratedItem><EnumeratedItem CodedValue="APCH112" nciodm:ExtCodeID="C121109"><CDISCSynonym>APCH1-15 Minus Glasgow Coma Score</CDISCSynonym><CDISCDefinition>Acute Physiology and Chronic Health Evaluation II - Glasgow coma score: Score equals 15 minus actual GCS.</CDISCDefinition><PreferredTerm>APACHE II - 15 Minus Glasgow Coma Score</PreferredTerm></EnumeratedItem><EnumeratedItem CodedValue="APCH113" nciodm:ExtCodeID="C121110"><CDISCSynonym>APCH1-A: Total Acute Physiology Score</CDISCSynonym><CDISCDefinition>Acute Physiology and Chronic Health Evaluation II - A: Total acute physiology score.</CDISCDefinition><PreferredTerm>APACHE II - A, Total Acute Physiology Score</PreferredTerm></EnumeratedItem><EnumeratedItem CodedValue="APCH114" nciodm:ExtCodeID="C121111"><CDISCSynonym>APCH1-B: Age Points</CDISCSynonym><CDISCDefinition>Acute Physiology and Chronic Health Evaluation II - B: Age points (years).</CDISCDefinition><PreferredTerm>APACHE II - B, Age Points</PreferredTerm></EnumeratedItem><EnumeratedItem CodedValue="APCH115" nciodm:ExtCodeID="C121112"><CDISCSynonym>APCH1-C: Chronic Health Points</CDISCSynonym><CDISCDefinition>Acute Physiology and Chronic Health Evaluation II - C: Chronic health points.</CDISCDefinition><PreferredTerm>APACHE II - C, Chronic Health Points</PreferredTerm></EnumeratedItem><EnumeratedItem CodedValue="APCH116" nciodm:ExtCodeID="C121113"><CDISCSynonym>APCH1-Total APACHE II Score</CDISCSynonym><CDISCDefinition>Acute Physiology and Chronic Health Evaluation II - Total APACHE II score.</CDISCDefinition><PreferredTerm>APACHE II - Total APACHE II Score</PreferredTerm></EnumeratedItem><CDISCSubmissionValue>APCH1TC</CDISCSubmissionValue><CDISCSynonym>Acute Physiology and Chronic Health Evaluation II Clinical Classification Test Code</CDISCSynonym><PreferredTerm>CDISC Clinical Classification APACHE II Test Code Terminology</PreferredTerm></CodeList><CodeList OID="CL.C120984.APCH1TN" Name="Acute Physiology and Chronic Health Evaluation II Clinical Classification Test Name" DataType="text" nciodm:ExtCodeID="C120984" nciodm:CodeListExtensible="No"><Description><TranslatedText xml:lang="en">Acute Physiology and Chronic Health Evaluation II test name.</TranslatedText></Description><EnumeratedItem CodedValue="APCH1-15 Minus Glasgow Coma Score" nciodm:ExtCodeID="C121109"><CDISCSynonym>APCH1-15 Minus Glasgow Coma Score</CDISCSynonym><CDISCDefinition>Acute Physiology and Chronic Health Evaluation II - Glasgow coma score: Score equals 15 minus actual GCS.</CDISCDefinition><PreferredTerm>APACHE II - 15 Minus Glasgow Coma Score</PreferredTerm></EnumeratedItem><EnumeratedItem CodedValue="APCH1-A: Total Acute Physiology Score" nciodm:ExtCodeID="C121110"><CDISCSynonym>APCH1-A: Total Acute Physiology Score</CDISCSynonym><CDISCDefinition>Acute Physiology and Chronic Health Evaluation II - A: Total acute physiology score.</CDISCDefinition><PreferredTerm>APACHE II - A, Total Acute Physiology Score</PreferredTerm></EnumeratedItem><EnumeratedItem CodedValue="APCH1-Arterial pH" nciodm:ExtCodeID="C121102"><CDISCSynonym>APCH1-Arterial pH</CDISCSynonym><CDISCDefinition>Acute Physiology and Chronic Health Evaluation II - Arterial pH (preferred).</CDISCDefinition><PreferredTerm>APACHE II - Arterial pH</PreferredTerm></EnumeratedItem><EnumeratedItem CodedValue="APCH1-B: Age Points" nciodm:ExtCodeID="C121111"><CDISCSynonym>APCH1-B: Age Points</CDISCSynonym><CDISCDefinition>Acute Physiology and Chronic Health Evaluation II - B: Age points (years).</CDISCDefinition><PreferredTerm>APACHE II - B, Age Points</PreferredTerm></EnumeratedItem><EnumeratedItem CodedValue="APCH1-C: Chronic Health Points" nciodm:ExtCodeID="C121112"><CDISCSynonym>APCH1-C: Chronic Health Points</CDISCSynonym><CDISCDefinition>Acute Physiology and Chronic Health Evaluation II - C: Chronic health points.</CDISCDefinition><PreferredTerm>APACHE II - C, Chronic Health Points</PreferredTerm></EnumeratedItem><EnumeratedItem CodedValue="APCH1-Heart Rate" nciodm:ExtCodeID="C121098"><CDISCSynonym>APCH1-Heart Rate</CDISCSynonym><CDISCDefinition>Acute Physiology and Chronic Health Evaluation II - Heart rate (ventricular response).</CDISCDefinition><PreferredTerm>APACHE II - Heart Rate</PreferredTerm></EnumeratedItem><EnumeratedItem CodedValue="APCH1-Hematocrit" nciodm:ExtCodeID="C121107"><CDISCSynonym>APCH1-Hematocrit</CDISCSynonym><CDISCDefinition>Acute Physiology and Chronic Health Evaluation II - Hematocrit (%).</CDISCDefinition><PreferredTerm>APACHE II - Hematocrit</PreferredTerm></EnumeratedItem><EnumeratedItem CodedValue="APCH1-Mean Arterial Pressure" nciodm:ExtCodeID="C121097"><CDISCSynonym>APCH1-Mean Arterial Pressure</CDISCSynonym><CDISCDefinition>Acute Physiology and Chronic Health Evaluation II - Mean arterial pressure - mmHg.</CDISCDefinition><PreferredTerm>APACHE II - Mean Arterial Pressure</PreferredTerm></EnumeratedItem><EnumeratedItem CodedValue="APCH1-Oxygenation: A-aDO2" nciodm:ExtCodeID="C121100"><CDISCSynonym>APCH1-Oxygenation: A-aDO2</CDISCSynonym><CDISCDefinition>Acute Physiology and Chronic Health Evaluation II - Oxygenation (mmHg): FIO2 greater than or equal to 0.5 record A-aDO2.</CDISCDefinition><PreferredTerm>APACHE II - Oxygenation, A-aDO2</PreferredTerm></EnumeratedItem><EnumeratedItem CodedValue="APCH1-Oxygenation: PaO2" nciodm:ExtCodeID="C121101"><CDISCSynonym>APCH1-Oxygenation: PaO2</CDISCSynonym><CDISCDefinition>Acute Physiology and Chronic Health Evaluation II - Oxygenation (mmHg): FIO2 less than 0.5 record only PaO2.</CDISCDefinition><PreferredTerm>APACHE II - Oxygenation, PaO2</PreferredTerm></EnumeratedItem><EnumeratedItem CodedValue="APCH1-Respiratory Rate" nciodm:ExtCodeID="C121099"><CDISCSynonym>APCH1-Respiratory Rate</CDISCSynonym><CDISCDefinition>Acute Physiology and Chronic Health Evaluation II - Respiratory rate (non-ventilated or ventilated).</CDISCDefinition><PreferredTerm>APACHE II - Respiratory Rate</PreferredTerm></EnumeratedItem><EnumeratedItem CodedValue="APCH1-Serum Creatinine" nciodm:ExtCodeID="C121106"><CDISCSynonym>APCH1-Serum Creatinine</CDISCSynonym><CDISCDefinition>Acute Physiology and Chronic Health Evaluation II - Serum creatinine (mg/100 mL) (double point score for acute renal failure).</CDISCDefinition><PreferredTerm>APACHE II - Serum Creatinine</PreferredTerm></EnumeratedItem><EnumeratedItem CodedValue="APCH1-Serum HCO3" nciodm:ExtCodeID="C121103"><CDISCSynonym>APCH1-Serum HCO3</CDISCSynonym><CDISCDefinition>Acute Physiology and Chronic Health Evaluation II - Serum HCO3 (venous mMol/L) (Not preferred, use if no ABGs).</CDISCDefinition><PreferredTerm>APACHE II - Serum HCO3</PreferredTerm></EnumeratedItem><EnumeratedItem CodedValue="APCH1-Serum Potassium" nciodm:ExtCodeID="C121105"><CDISCSynonym>APCH1-Serum Potassium</CDISCSynonym><CDISCDefinition>Acute Physiology and Chronic Health Evaluation II - Serum potassium (mMol/L).</CDISCDefinition><PreferredTerm>APACHE II - Serum Potassium</PreferredTerm></EnumeratedItem><EnumeratedItem CodedValue="APCH1-Serum Sodium" nciodm:ExtCodeID="C121104"><CDISCSynonym>APCH1-Serum Sodium</CDISCSynonym><CDISCDefinition>Acute Physiology and Chronic Health Evaluation II - Serum sodium (mMol/L).</CDISCDefinition><PreferredTerm>APACHE II - Serum Sodium</PreferredTerm></EnumeratedItem><EnumeratedItem CodedValue="APCH1-Temperature - Rectal" nciodm:ExtCodeID="C121096"><CDISCSynonym>APCH1-Temperature - Rectal</CDISCSynonym><CDISCDefinition>Acute Physiology and Chronic Health Evaluation II - Temperature - rectal (degree C).</CDISCDefinition><PreferredTerm>APACHE II - Temperature, Rectal</PreferredTerm></EnumeratedItem><EnumeratedItem CodedValue="APCH1-Total APACHE II Score" nciodm:ExtCodeID="C121113"><CDISCSynonym>APCH1-Total APACHE II Score</CDISCSynonym><CDISCDefinition>Acute Physiology and Chronic Health Evaluation II - Total APACHE II score.</CDISCDefinition><PreferredTerm>APACHE II - Total APACHE II Score</PreferredTerm></EnumeratedItem><EnumeratedItem CodedValue="APCH1-White Blood Count" nciodm:ExtCodeID="C121108"><CDISCSynonym>APCH1-White Blood Count</CDISCSynonym><CDISCDefinition>Acute Physiology and Chronic Health Evaluation II - White blood count (total/mm3) (in 1,000s).</CDISCDefinition><PreferredTerm>APACHE II - White Blood Count</PreferredTerm></EnumeratedItem><CDISCSubmissionValue>APCH1TN</CDISCSubmissionValue><CDISCSynonym>Acute Physiology and Chronic Health Evaluation II Clinical Classification Test Name</CDISCSynonym><PreferredTerm>CDISC Clinical Classification APACHE II Test Name Terminology</PreferredTerm></CodeList><CodeList OID="CL.C132311.ADTNQRS" Name="Administration Technique Response" DataType="text" nciodm:ExtCodeID="C132311" nciodm:CodeListExtensible="Yes"><Description><TranslatedText xml:lang="en">Terminology relevant to the product administration technique used.</TranslatedText></Description><EnumeratedItem CodedValue="HEAF" nciodm:ExtCodeID="C85996"><CDISCDefinition>A multiple puncture tuberculin skin test in which a Heaf gun (device containing 6 needles arranged in a circular pattern) is dipped into tuberculin purified protein derivative and pushed into the skin of the flexor surface of the left forearm. (NCI)</CDISCDefinition><PreferredTerm>Heaf Tuberculin Skin Test</PreferredTerm></EnumeratedItem><EnumeratedItem CodedValue="MANTOUX" nciodm:ExtCodeID="C85997"><CDISCDefinition>A single puncture tuberculin skin test in which a standard dose of 5 Tuberculin units of purified protein derivative is injected under the skin of the inner surface of the forearm.</CDISCDefinition><PreferredTerm>Mantoux Tuberculin Skin Test</PreferredTerm></EnumeratedItem><EnumeratedItem CodedValue="TINE" nciodm:ExtCodeID="C85998"><CDISCDefinition>A multiple puncture tuberculin skin test in which tuberculin antigen (either purified protein derivative or old) is pushed into the skin via a device containing 4-6 needles that are coated in tuberculin antigen. (NCI)</CDISCDefinition><PreferredTerm>Tine Tuberculin Skin Test</PreferredTerm></EnumeratedItem><CDISCSubmissionValue>ADTNQRS</CDISCSubmissionValue><CDISCSynonym>Administration Technique Response</CDISCSynonym><PreferredTerm>CDISC SDTM Administration Technique Response Terminology</PreferredTerm></CodeList><CodeList OID="CL.C66781.AGEU" Name="Age Unit" DataType="text" nciodm:ExtCodeID="C66781" nciodm:CodeListExtensible="No"><Description><TranslatedText xml:lang="en">Those units of time that are routinely used to express the age of a subject.</TranslatedText></Description><EnumeratedItem CodedValue="DAYS" nciodm:ExtCodeID="C25301"><CDISCDefinition>A unit of measurement of time equal to 24 hours.</CDISCDefinition><PreferredTerm>Day</PreferredTerm></EnumeratedItem><EnumeratedItem CodedValue="HOURS" nciodm:ExtCodeID="C25529"><CDISCSynonym>Hours</CDISCSynonym><CDISCSynonym>h</CDISCSynonym><CDISCSynonym>hr</CDISCSynonym><CDISCDefinition>A unit of measurement of time equal to 60 minutes.</CDISCDefinition><PreferredTerm>Hour</PreferredTerm></EnumeratedItem><EnumeratedItem CodedValue="MONTHS" nciodm:ExtCodeID="C29846"><CDISCSynonym>Month</CDISCSynonym><CDISCDefinition>One of the 12 divisions of a year as determined by a calendar. It corresponds to the unit of time of approximately to one cycle of the moon's phases, about 30 days or 4 weeks. (NCI)</CDISCDefinition><PreferredTerm>Month</PreferredTerm></EnumeratedItem><EnumeratedItem CodedValue="WEEKS" nciodm:ExtCodeID="C29844"><CDISCSynonym>Week</CDISCSynonym><CDISCDefinition>Any period of seven consecutive days. (NCI)</CDISCDefinition><PreferredTerm>Week</PreferredTerm></EnumeratedItem><EnumeratedItem CodedValue="YEARS" nciodm:ExtCodeID="C29848"><CDISCSynonym>Year</CDISCSynonym><CDISCDefinition>The period of time that it takes for Earth to make a complete revolution around the sun, approximately 365 days; a specific one year period. (NCI)</CDISCDefinition><PreferredTerm>Year</PreferredTerm></EnumeratedItem><CDISCSubmissionValue>AGEU</CDISCSubmissionValue><CDISCSynonym>Age Unit</CDISCSynonym><PreferredTerm>CDISC SDTM Age Unit Terminology</PreferredTerm></CodeList><CodeList OID="CL.C112435.AQ01TC" Name="Airway Questionnaire 20 Questionnaire Test Code" DataType="text" nciodm:ExtCodeID="C112435" nciodm:CodeListExtensible="No"><Description><TranslatedText xml:lang="en">Airway Questionnaire 20 test code.</TranslatedText></Description><EnumeratedItem CodedValue="AQ0101" nciodm:ExtCodeID="C112529"><CDISCSynonym>AQ01-Cough Often During Day</CDISCSynonym><CDISCDefinition>Airway Questionnaire 20 - Do you cough often during the day?</CDISCDefinition><PreferredTerm>AQ20 - Cough Often During the Day</PreferredTerm></EnumeratedItem><EnumeratedItem CodedValue="AQ0102" nciodm:ExtCodeID="C112530"><CDISCSynonym>AQ01-Feel Restless Due to Chest Trouble</CDISCSynonym><CDISCDefinition>Airway Questionnaire 20 - Does your chest trouble often make you feel restless?</CDISCDefinition><PreferredTerm>AQ20 - Chest Trouble Make You Feel Restless</PreferredTerm></EnumeratedItem><EnumeratedItem CodedValue="AQ0103" nciodm:ExtCodeID="C112531"><CDISCSynonym>AQ01-Gardening Make You Breathless</CDISCSynonym><CDISCDefinition>Airway Questionnaire 20 - Does gardening make you breathless?</CDISCDefinition><PreferredTerm>AQ20 - Gardening Make You Breathless</PreferredTerm></EnumeratedItem><EnumeratedItem CodedValue="AQ0104" nciodm:ExtCodeID="C112532"><CDISCSynonym>AQ01-Chest Upset at Friend House</CDISCSynonym><CDISCDefinition>Airway Questionnaire 20 - Do you worry when going to a friend's house that there might be something there that will upset your chest?</CDISCDefinition><PreferredTerm>AQ20 - Worry When Going to Friend House Something Will Upset Your Chest</PreferredTerm></EnumeratedItem><EnumeratedItem CodedValue="AQ0105" nciodm:ExtCodeID="C112533"><CDISCSynonym>AQ01-Chest Prob Smell/Fume/Smoke/Perfume</CDISCSynonym><CDISCDefinition>Airway Questionnaire 20 - Do you get chest problems when you come into contact with strong smells, exhaust fumes, cigarette smoke, perfume etc?</CDISCDefinition><PreferredTerm>AQ20 - Get Chest Problems When Contact With Strong Smells</PreferredTerm></EnumeratedItem><EnumeratedItem CodedValue="AQ0106" nciodm:ExtCodeID="C112534"><CDISCSynonym>AQ01-Partner Upset by Your Chest Trouble</CDISCSynonym><CDISCDefinition>Airway Questionnaire 20 - Does your partner find your chest trouble upsetting?</CDISCDefinition><PreferredTerm>AQ20 - Partner Find Your Chest Trouble Upsetting</PreferredTerm></EnumeratedItem><EnumeratedItem CodedValue="AQ0107" nciodm:ExtCodeID="C112535"><CDISCSynonym>AQ01-Breathless When Trying to Sleep</CDISCSynonym><CDISCDefinition>Airway Questionnaire 20 - Do you feel breathless when trying to sleep?</CDISCDefinition><PreferredTerm>AQ20 - Feel Breathless When Trying to Sleep</PreferredTerm></EnumeratedItem><EnumeratedItem CodedValue="AQ0108" nciodm:ExtCodeID="C112536"><CDISCSynonym>AQ01-Long Term Effects of Drugs</CDISCSynonym><CDISCDefinition>Airway Questionnaire 20 - Do you worry about the long term effects of the drugs you take for your chest trouble?</CDISCDefinition><PreferredTerm>AQ20 - Worry About Long Term Effects of Drugs for Chest Trouble</PreferredTerm></EnumeratedItem><EnumeratedItem CodedValue="AQ0109" nciodm:ExtCodeID="C112537"><CDISCSynonym>AQ01-Emotional Upset Worse Chest Trouble</CDISCSynonym><CDISCDefinition>Airway Questionnaire 20 - Does getting emotionally upset make your chest trouble worse?</CDISCDefinition><PreferredTerm>AQ20 - Getting Emotionally Upset Make Chest Trouble Worse</PreferredTerm></EnumeratedItem><EnumeratedItem CodedValue="AQ0110" nciodm:ExtCodeID="C112538"><CDISCSynonym>AQ01-Difficulty Getting Around the House</CDISCSynonym><CDISCDefinition>Airway Questionnaire 20 - Are there times when you have difficulty getting around the house because of your chest trouble?</CDISCDefinition><PreferredTerm>AQ20 - Difficulty Getting Around the House Because of Chest Trouble</PreferredTerm></EnumeratedItem><EnumeratedItem CodedValue="AQ0111" nciodm:ExtCodeID="C112539"><CDISCSynonym>AQ01-Breathless Carry out Work Activity</CDISCSynonym><CDISCDefinition>Airway Questionnaire 20 - Does your chest problem make you breathless when you do things at work? (paid employment).</CDISCDefinition><PreferredTerm>AQ20 - Chest Problem Make You Breathless at Work</PreferredTerm></EnumeratedItem><EnumeratedItem CodedValue="AQ0112" nciodm:ExtCodeID="C112540"><CDISCSynonym>AQ01-Breathless Walking Upstairs</CDISCSynonym><CDISCDefinition>Airway Questionnaire 20 - Does walking upstairs make you breathless?</CDISCDefinition><PreferredTerm>AQ20 - Walking Upstairs Make You Breathless</PreferredTerm></EnumeratedItem><EnumeratedItem CodedValue="AQ0113" nciodm:ExtCodeID="C112541"><CDISCSynonym>AQ01-Get Breathless Doing Housework</CDISCSynonym><CDISCDefinition>Airway Questionnaire 20 - Do you get breathless doing housework?</CDISCDefinition><PreferredTerm>AQ20 - Get Breathless Doing Housework</PreferredTerm></EnumeratedItem><EnumeratedItem CodedValue="AQ0114" nciodm:ExtCodeID="C112542"><CDISCSynonym>AQ01-Go Home Sooner Than Others</CDISCSynonym><CDISCDefinition>Airway Questionnaire 20 - Does your chest trouble make you go home sooner than others after a night out?</CDISCDefinition><PreferredTerm>AQ20 - Chest Trouble Make You Go Home Sooner Than Others</PreferredTerm></EnumeratedItem><EnumeratedItem CodedValue="AQ0115" nciodm:ExtCodeID="C112543"><CDISCSynonym>AQ01-Breathlessness When Laugh</CDISCSynonym><CDISCDefinition>Airway Questionnaire 20 - Do you suffer from breathlessness when you laugh?</CDISCDefinition><PreferredTerm>AQ20 - Suffer From Breathlessness When Laugh</PreferredTerm></EnumeratedItem><EnumeratedItem CodedValue="AQ0116" nciodm:ExtCodeID="C112544"><CDISCSynonym>AQ01-Impatient Due to Chest Trouble</CDISCSynonym><CDISCDefinition>Airway Questionnaire 20 - Does your chest trouble often make you feel impatient?</CDISCDefinition><PreferredTerm>AQ20 - Chest Trouble Make You Feel Impatient</PreferredTerm></EnumeratedItem><EnumeratedItem CodedValue="AQ0117" nciodm:ExtCodeID="C112545"><CDISCSynonym>AQ01-Full Life Limited by Chest Trouble</CDISCSynonym><CDISCDefinition>Airway Questionnaire 20 - Do you think the fullness of your life is limited by your chest trouble?</CDISCDefinition><PreferredTerm>AQ20 - Fullness of Life is Limited by Chest Trouble</PreferredTerm></EnumeratedItem><EnumeratedItem CodedValue="AQ0118" nciodm:ExtCodeID="C112546"><CDISCSynonym>AQ01-Drained After a Cold</CDISCSynonym><CDISCDefinition>Airway Questionnaire 20 - Do you feel drained after a cold because of your chest trouble?</CDISCDefinition><PreferredTerm>AQ20 - Feel Drained After a Cold Because of Chest Trouble</PreferredTerm></EnumeratedItem><EnumeratedItem CodedValue="AQ0119" nciodm:ExtCodeID="C112547"><CDISCSynonym>AQ01-Feeling of Chest Heaviness</CDISCSynonym><CDISCDefinition>Airway Questionnaire 20 - Do you have a feeling of chest heaviness?</CDISCDefinition><PreferredTerm>AQ20 - Feeling of Chest Heaviness</PreferredTerm></EnumeratedItem><EnumeratedItem CodedValue="AQ0120" nciodm:ExtCodeID="C112548"><CDISCSynonym>AQ01-Worry About Chest Trouble</CDISCSynonym><CDISCDefinition>Airway Questionnaire 20 - Do you worry a lot about your chest trouble?</CDISCDefinition><PreferredTerm>AQ20 - Worry a Lot About Chest Trouble</PreferredTerm></EnumeratedItem><CDISCSubmissionValue>AQ01TC</CDISCSubmissionValue><CDISCSynonym>Airway Questionnaire 20 Questionnaire Test Code</CDISCSynonym><PreferredTerm>CDISC Questionnaire AQ20 Test Code Terminology</PreferredTerm></CodeList><CodeList OID="CL.C112434.AQ01TN" Name="Airway Questionnaire 20 Questionnaire Test Name" DataType="text" nciodm:ExtCodeID="C112434" nciodm:CodeListExtensible="No"><Description><TranslatedText xml:lang="en">Airway Questionnaire 20 test name.</TranslatedText></Description><EnumeratedItem CodedValue="AQ01-Breathless Carry out Work Activity" nciodm:ExtCodeID="C112539"><CDISCSynonym>AQ01-Breathless Carry out Work Activity</CDISCSynonym><CDISCDefinition>Airway Questionnaire 20 - Does your chest problem make you breathless when you do things at work? (paid employment).</CDISCDefinition><PreferredTerm>AQ20 - Chest Problem Make You Breathless at Work</PreferredTerm></EnumeratedItem><EnumeratedItem CodedValue="AQ01-Breathless Walking Upstairs" nciodm:ExtCodeID="C112540"><CDISCSynonym>AQ01-Breathless Walking Upstairs</CDISCSynonym><CDISCDefinition>Airway Questionnaire 20 - Does walking upstairs make you breathless?</CDISCDefinition><PreferredTerm>AQ20 - Walking Upstairs Make You Breathless</PreferredTerm></EnumeratedItem><EnumeratedItem CodedValue="AQ01-Breathless When Trying to Sleep" nciodm:ExtCodeID="C112535"><CDISCSynonym>AQ01-Breathless When Trying to Sleep</CDISCSynonym><CDISCDefinition>Airway Questionnaire 20 - Do you feel breathless when trying to sleep?</CDISCDefinition><PreferredTerm>AQ20 - Feel Breathless When Trying to Sleep</PreferredTerm></EnumeratedItem><EnumeratedItem CodedValue="AQ01-Breathlessness When Laugh" nciodm:ExtCodeID="C112543"><CDISCSynonym>AQ01-Breathlessness When Laugh</CDISCSynonym><CDISCDefinition>Airway Questionnaire 20 - Do you suffer from breathlessness when you laugh?</CDISCDefinition><PreferredTerm>AQ20 - Suffer From Breathlessness When Laugh</PreferredTerm></EnumeratedItem><EnumeratedItem CodedValue="AQ01-Chest Prob Smell/Fume/Smoke/Perfume" nciodm:ExtCodeID="C112533"><CDISCSynonym>AQ01-Chest Prob Smell/Fume/Smoke/Perfume</CDISCSynonym><CDISCDefinition>Airway Questionnaire 20 - Do you get chest problems when you come into contact with strong smells, exhaust fumes, cigarette smoke, perfume etc?</CDISCDefinition><PreferredTerm>AQ20 - Get Chest Problems When Contact With Strong Smells</PreferredTerm></EnumeratedItem><EnumeratedItem CodedValue="AQ01-Chest Upset at Friend House" nciodm:ExtCodeID="C112532"><CDISCSynonym>AQ01-Chest Upset at Friend House</CDISCSynonym><CDISCDefinition>Airway Questionnaire 20 - Do you worry when going to a friend's house that there might be something there that will upset your chest?</CDISCDefinition><PreferredTerm>AQ20 - Worry When Going to Friend House Something Will Upset Your Chest</PreferredTerm></EnumeratedItem><EnumeratedItem CodedValue="AQ01-Cough Often During Day" nciodm:ExtCodeID="C112529"><CDISCSynonym>AQ01-Cough Often During Day</CDISCSynonym><CDISCDefinition>Airway Questionnaire 20 - Do you cough often during the day?</CDISCDefinition><PreferredTerm>AQ20 - Cough Often During the Day</PreferredTerm></EnumeratedItem><EnumeratedItem CodedValue="AQ01-Difficulty Getting Around the House" nciodm:ExtCodeID="C112538"><CDISCSynonym>AQ01-Difficulty Getting Around the House</CDISCSynonym><CDISCDefinition>Airway Questionnaire 20 - Are there times when you have difficulty getting around the house because of your chest trouble?</CDISCDefinition><PreferredTerm>AQ20 - Difficulty Getting Around the House Because of Chest Trouble</PreferredTerm></EnumeratedItem><EnumeratedItem CodedValue="AQ01-Drained After a Cold" nciodm:ExtCodeID="C112546"><CDISCSynonym>AQ01-Drained After a Cold</CDISCSynonym><CDISCDefinition>Airway Questionnaire 20 - Do you feel drained after a cold because of your chest trouble?</CDISCDefinition><PreferredTerm>AQ20 - Feel Drained After a Cold Because of Chest Trouble</PreferredTerm></EnumeratedItem><EnumeratedItem CodedValue="AQ01-Emotional Upset Worse Chest Trouble" nciodm:ExtCodeID="C112537"><CDISCSynonym>AQ01-Emotional Upset Worse Chest Trouble</CDISCSynonym><CDISCDefinition>Airway Questionnaire 20 - Does getting emotionally upset make your chest trouble worse?</CDISCDefinition><PreferredTerm>AQ20 - Getting Emotionally Upset Make Chest Trouble Worse</PreferredTerm></EnumeratedItem><EnumeratedItem CodedValue="AQ01-Feel Restless Due to Chest Trouble" nciodm:ExtCodeID="C112530"><CDISCSynonym>AQ01-Feel Restless Due to Chest Trouble</CDISCSynonym><CDISCDefinition>Airway Questionnaire 20 - Does your chest trouble often make you feel restless?</CDISCDefinition><PreferredTerm>AQ20 - Chest Trouble Make You Feel Restless</PreferredTerm></EnumeratedItem><EnumeratedItem CodedValue="AQ01-Feeling of Chest Heaviness" nciodm:ExtCodeID="C112547"><CDISCSynonym>AQ01-Feeling of Chest Heaviness</CDISCSynonym><CDISCDefinition>Airway Questionnaire 20 - Do you have a feeling of chest heaviness?</CDISCDefinition><PreferredTerm>AQ20 - Feeling of Chest Heaviness</PreferredTerm></EnumeratedItem><EnumeratedItem CodedValue="AQ01-Full Life Limited by Chest Trouble" nciodm:ExtCodeID="C112545"><CDISCSynonym>AQ01-Full Life Limited by Chest Trouble</CDISCSynonym><CDISCDefinition>Airway Questionnaire 20 - Do you think the fullness of your life is limited by your chest trouble?</CDISCDefinition><PreferredTerm>AQ20 - Fullness of Life is Limited by Chest Trouble</PreferredTerm></EnumeratedItem><EnumeratedItem CodedValue="AQ01-Gardening Make You Breathless" nciodm:ExtCodeID="C112531"><CDISCSynonym>AQ01-Gardening Make You Breathless</CDISCSynonym><CDISCDefinition>Airway Questionnaire 20 - Does gardening make you breathless?</CDISCDefinition><PreferredTerm>AQ20 - Gardening Make You Breathless</PreferredTerm></EnumeratedItem><EnumeratedItem CodedValue="AQ01-Get Breathless Doing Housework" nciodm:ExtCodeID="C112541"><CDISCSynonym>AQ01-Get Breathless Doing Housework</CDISCSynonym><CDISCDefinition>Airway Questionnaire 20 - Do you get breathless doing housework?</CDISCDefinition><PreferredTerm>AQ20 - Get Breathless Doing Housework</PreferredTerm></EnumeratedItem><EnumeratedItem CodedValue="AQ01-Go Home Sooner Than Others" nciodm:ExtCodeID="C112542"><CDISCSynonym>AQ01-Go Home Sooner Than Others</CDISCSynonym><CDISCDefinition>Airway Questionnaire 20 - Does your chest trouble make you go home sooner than others after a night out?</CDISCDefinition><PreferredTerm>AQ20 - Chest Trouble Make You Go Home Sooner Than Others</PreferredTerm></EnumeratedItem><EnumeratedItem CodedValue="AQ01-Impatient Due to Chest Trouble" nciodm:ExtCodeID="C112544"><CDISCSynonym>AQ01-Impatient Due to Chest Trouble</CDISCSynonym><CDISCDefinition>Airway Questionnaire 20 - Does your chest trouble often make you feel impatient?</CDISCDefinition><PreferredTerm>AQ20 - Chest Trouble Make You Feel Impatient</PreferredTerm></EnumeratedItem><EnumeratedItem CodedValue="AQ01-Long Term Effects of Drugs" nciodm:ExtCodeID="C112536"><CDISCSynonym>AQ01-Long Term Effects of Drugs</CDISCSynonym><CDISCDefinition>Airway Questionnaire 20 - Do you worry about the long term effects of the drugs you take for your chest trouble?</CDISCDefinition><PreferredTerm>AQ20 - Worry About Long Term Effects of Drugs for Chest Trouble</PreferredTerm></EnumeratedItem><EnumeratedItem CodedValue="AQ01-Partner Upset by Your Chest Trouble" nciodm:ExtCodeID="C112534"><CDISCSynonym>AQ01-Partner Upset by Your Chest Trouble</CDISCSynonym><CDISCDefinition>Airway Questionnaire 20 - Does your partner find your chest trouble upsetting?</CDISCDefinition><PreferredTerm>AQ20 - Partner Find Your Chest Trouble Upsetting</PreferredTerm></EnumeratedItem><EnumeratedItem CodedValue="AQ01-Worry About Chest Trouble" nciodm:ExtCodeID="C112548"><CDISCSynonym>AQ01-Worry About Chest Trouble</CDISCSynonym><CDISCDefinition>Airway Questionnaire 20 - Do you worry a lot about your chest trouble?</CDISCDefinition><PreferredTerm>AQ20 - Worry a Lot About Chest Trouble</PreferredTerm></EnumeratedItem><CDISCSubmissionValue>AQ01TN</CDISCSubmissionValue><CDISCSynonym>Airway Questionnaire 20 Questionnaire Test Name</CDISCSynonym><PreferredTerm>CDISC Questionnaire AQ20 Test Name Terminology</PreferredTerm></CodeList><CodeList OID="CL.C119062.ADTC01TC" Name="Alcohol Use Disorder Identification Test-Consumption Questions Questionnaire Test Code" DataType="text" nciodm:ExtCodeID="C119062" nciodm:CodeListExtensible="No"><Description><TranslatedText xml:lang="en">Alcohol Use Disorder Identification Test-Consumption Questions test code.</TranslatedText></Description><EnumeratedItem CodedValue="ADTC0101" nciodm:ExtCodeID="C119119"><CDISCSynonym>ADTC01-How Often Drink Alcohol</CDISCSynonym><CDISCDefinition>Alcohol Use Disorder Identification Test-Consumption questions - How often do you have a drink containing alcohol?</CDISCDefinition><PreferredTerm>AUDIT-C - How Often Have Alcohol Drink</PreferredTerm></EnumeratedItem><EnumeratedItem CodedValue="ADTC0102" nciodm:ExtCodeID="C119120"><CDISCSynonym>ADTC01-Alcohol Drinks on a Typical Day</CDISCSynonym><CDISCDefinition>Alcohol Use Disorder Identification Test-Consumption questions - How many standard drinks containing alcohol do you have on a typical day?</CDISCDefinition><PreferredTerm>AUDIT-C - How Many Alcohol Drinks on a Typical Day</PreferredTerm></EnumeratedItem><EnumeratedItem CodedValue="ADTC0103" nciodm:ExtCodeID="C119121"><CDISCSynonym>ADTC01-Six or More Drinks One Occasion</CDISCSynonym><CDISCDefinition>Alcohol Use Disorder Identification Test-Consumption questions - How often do you have six or more drinks on one occasion?</CDISCDefinition><PreferredTerm>AUDIT-C - How Often Have Six or More Drinks</PreferredTerm></EnumeratedItem><CDISCSubmissionValue>ADTC01TC</CDISCSubmissionValue><CDISCSynonym>Alcohol Use Disorder Identification Test-Consumption Questions Questionnaire Test Code</CDISCSynonym><PreferredTerm>CDISC Questionnaire AUDIT-C Test Code Terminology</PreferredTerm></CodeList><CodeList OID="CL.C119061.ADTC01TN" Name="Alcohol Use Disorder Identification Test-Consumption Questions Questionnaire Test Name" DataType="text" nciodm:ExtCodeID="C119061" nciodm:CodeListExtensible="No"><Description><TranslatedText xml:lang="en">Alcohol Use Disorder Identification Test-Consumption Questions test name.</TranslatedText></Description><EnumeratedItem CodedValue="ADTC01-Alcohol Drinks on a Typical Day" nciodm:ExtCodeID="C119120"><CDISCSynonym>ADTC01-Alcohol Drinks on a Typical Day</CDISCSynonym><CDISCDefinition>Alcohol Use Disorder Identification Test-Consumption questions - How many standard drinks containing alcohol do you have on a typical day?</CDISCDefinition><PreferredTerm>AUDIT-C - How Many Alcohol Drinks on a Typical Day</PreferredTerm></EnumeratedItem><EnumeratedItem CodedValue="ADTC01-How Often Drink Alcohol" nciodm:ExtCodeID="C119119"><CDISCSynonym>ADTC01-How Often Drink Alcohol</CDISCSynonym><CDISCDefinition>Alcohol Use Disorder Identification Test-Consumption questions - How often do you have a drink containing alcohol?</CDISCDefinition><PreferredTerm>AUDIT-C - How Often Have Alcohol Drink</PreferredTerm></EnumeratedItem><EnumeratedItem CodedValue="ADTC01-Six or More Drinks One Occasion" nciodm:ExtCodeID="C119121"><CDISCSynonym>ADTC01-Six or More Drinks One Occasion</CDISCSynonym><CDISCDefinition>Alcohol Use Disorder Identification Test-Consumption questions - How often do you have six or more drinks on one occasion?</CDISCDefinition><PreferredTerm>AUDIT-C - How Often Have Six or More Drinks</PreferredTerm></EnumeratedItem><CDISCSubmissionValue>ADTC01TN</CDISCSubmissionValue><CDISCSynonym>Alcohol Use Disorder Identification Test-Consumption Questions Questionnaire Test Name</CDISCSynonym><PreferredTerm>CDISC Questionnaire AUDIT-C Test Name Terminology</PreferredTerm></CodeList><CodeList OID="CL.C119060.ADT01TC" Name="Alcohol Use Disorder Identification Test: Self-Report Version Questionnaire Test Code" DataType="text" nciodm:ExtCodeID="C119060" nciodm:CodeListExtensible="No"><Description><TranslatedText xml:lang="en">Alcohol Use Disorder Identification Test: Self-Report Version test code.</TranslatedText></Description><EnumeratedItem CodedValue="ADT0101" nciodm:ExtCodeID="C119108"><CDISCSynonym>ADT01-How Often Drink Alcohol</CDISCSynonym><CDISCDefinition>Alcohol Use Disorder Identification Test: Self-Report Version - How often do you have a drink containing alcohol?</CDISCDefinition><PreferredTerm>AUDIT - How Often Have Alcohol Drink</PreferredTerm></EnumeratedItem><EnumeratedItem CodedValue="ADT0102" nciodm:ExtCodeID="C119109"><CDISCSynonym>ADT01-Alcohol Drinks on a Typical Day</CDISCSynonym><CDISCDefinition>Alcohol Use Disorder Identification Test: Self-Report Version - How many drinks containing alcohol do you have on a typical day when you are drinking?</CDISCDefinition><PreferredTerm>AUDIT - How Many Alcohol Drinks on a Typical Day</PreferredTerm></EnumeratedItem><EnumeratedItem CodedValue="ADT0103" nciodm:ExtCodeID="C119110"><CDISCSynonym>ADT01-Six or More Drinks One Occasion</CDISCSynonym><CDISCDefinition>Alcohol Use Disorder Identification Test: Self-Report Version - How often do you have six or more drinks on one occasion?</CDISCDefinition><PreferredTerm>AUDIT - How Often Have Six or More Drinks</PreferredTerm></EnumeratedItem><EnumeratedItem CodedValue="ADT0104" nciodm:ExtCodeID="C119111"><CDISCSynonym>ADT01-Not Able Stop Drinking Once Start</CDISCSynonym><CDISCDefinition>Alcohol Use Disorder Identification Test: Self-Report Version - How often during the last year have you found that you were not able to stop drinking once you had started?</CDISCDefinition><PreferredTerm>AUDIT - How Often Last Year You Found Not Able to Stop Drinking</PreferredTerm></EnumeratedItem><EnumeratedItem CodedValue="ADT0105" nciodm:ExtCodeID="C119112"><CDISCSynonym>ADT01-Failed to Do as Expected</CDISCSynonym><CDISCDefinition>Alcohol Use Disorder Identification Test: Self-Report Version - How often during the last year have you failed to do what was normally expected of you because of drinking?</CDISCDefinition><PreferredTerm>AUDIT - How Often Last Year You Failed to Do Normally Expected of You</PreferredTerm></EnumeratedItem><EnumeratedItem CodedValue="ADT0106" nciodm:ExtCodeID="C119113"><CDISCSynonym>ADT01-Need Drink Morning After Drinking</CDISCSynonym><CDISCDefinition>Alcohol Use Disorder Identification Test: Self-Report Version - How often during the last year have you needed a first drink in the morning to get yourself going after a heavy drinking session?</CDISCDefinition><PreferredTerm>AUDIT - How Often Last Year Need a Drink in the Morning to Get Going</PreferredTerm></EnumeratedItem><EnumeratedItem CodedValue="ADT0107" nciodm:ExtCodeID="C119114"><CDISCSynonym>ADT01-Feeling of Guilt or Remorse</CDISCSynonym><CDISCDefinition>Alcohol Use Disorder Identification Test: Self-Report Version - How often during the last year have you had a feeling of guilt or remorse after drinking?</CDISCDefinition><PreferredTerm>AUDIT - How Often Last Year You Feel Guilt or Remorse After Drinking</PreferredTerm></EnumeratedItem><EnumeratedItem CodedValue="ADT0108" nciodm:ExtCodeID="C119115"><CDISCSynonym>ADT01-Unable to Remember What Happened</CDISCSynonym><CDISCDefinition>Alcohol Use Disorder Identification Test: Self-Report Version - How often during the last year have you been unable to remember what happened the night before because of your drinking?</CDISCDefinition><PreferredTerm>AUDIT - How Often Last Year You Unable to Remember What Happened the Night Before</PreferredTerm></EnumeratedItem><EnumeratedItem CodedValue="ADT0109" nciodm:ExtCodeID="C119116"><CDISCSynonym>ADT01-Injured Because of Your Drinking</CDISCSynonym><CDISCDefinition>Alcohol Use Disorder Identification Test: Self-Report Version - Have you or someone else been injured because of your drinking?</CDISCDefinition><PreferredTerm>AUDIT - Injured Because of Drinking</PreferredTerm></EnumeratedItem><EnumeratedItem CodedValue="ADT0110" nciodm:ExtCodeID="C119117"><CDISCSynonym>ADT01-Suggested to Cut Down</CDISCSynonym><CDISCDefinition>Alcohol Use Disorder Identification Test: Self-Report Version - Has a relative, friend, doctor, or other health care worker been concerned about your drinking or suggested you cut down?</CDISCDefinition><PreferredTerm>AUDIT - Concerned About Your Drinking</PreferredTerm></EnumeratedItem><EnumeratedItem CodedValue="ADT0111" nciodm:ExtCodeID="C119118"><CDISCSynonym>ADT01-Total</CDISCSynonym><CDISCDefinition>Alcohol Use Disorder Identification Test: Self-Report Version - Total.</CDISCDefinition><PreferredTerm>AUDIT - Total</PreferredTerm></EnumeratedItem><CDISCSubmissionValue>ADT01TC</CDISCSubmissionValue><CDISCSynonym>Alcohol Use Disorder Identification Test: Self-Report Version Questionnaire Test Code</CDISCSynonym><PreferredTerm>CDISC Questionnaire AUDIT-SR Test Code Terminology</PreferredTerm></CodeList><CodeList OID="CL.C119059.ADT01TN" Name="Alcohol Use Disorder Identification Test: Self-Report Version Questionnaire Test Name" DataType="text" nciodm:ExtCodeID="C119059" nciodm:CodeListExtensible="No"><Description><TranslatedText xml:lang="en">Alcohol Use Disorder Identification Test: Self-Report Version test name.</TranslatedText></Description><EnumeratedItem CodedValue="ADT01-Alcohol Drinks on a Typical Day" nciodm:ExtCodeID="C119109"><CDISCSynonym>ADT01-Alcohol Drinks on a Typical Day</CDISCSynonym><CDISCDefinition>Alcohol Use Disorder Identification Test: Self-Report Version - How many drinks containing alcohol do you have on a typical day when you are drinking?</CDISCDefinition><PreferredTerm>AUDIT - How Many Alcohol Drinks on a Typical Day</PreferredTerm></EnumeratedItem><EnumeratedItem CodedValue="ADT01-Failed to Do as Expected" nciodm:ExtCodeID="C119112"><CDISCSynonym>ADT01-Failed to Do as Expected</CDISCSynonym><CDISCDefinition>Alcohol Use Disorder Identification Test: Self-Report Version - How often during the last year have you failed to do what was normally expected of you because of drinking?</CDISCDefinition><PreferredTerm>AUDIT - How Often Last Year You Failed to Do Normally Expected of You</PreferredTerm></EnumeratedItem><EnumeratedItem CodedValue="ADT01-Feeling of Guilt or Remorse" nciodm:ExtCodeID="C119114"><CDISCSynonym>ADT01-Feeling of Guilt or Remorse</CDISCSynonym><CDISCDefinition>Alcohol Use Disorder Identification Test: Self-Report Version - How often during the last year have you had a feeling of guilt or remorse after drinking?</CDISCDefinition><PreferredTerm>AUDIT - How Often Last Year You Feel Guilt or Remorse After Drinking</PreferredTerm></EnumeratedItem><EnumeratedItem CodedValue="ADT01-How Often Drink Alcohol" nciodm:ExtCodeID="C119108"><CDISCSynonym>ADT01-How Often Drink Alcohol</CDISCSynonym><CDISCDefinition>Alcohol Use Disorder Identification Test: Self-Report Version - How often do you have a drink containing alcohol?</CDISCDefinition><PreferredTerm>AUDIT - How Often Have Alcohol Drink</PreferredTerm></EnumeratedItem><EnumeratedItem CodedValue="ADT01-Injured Because of Your Drinking" nciodm:ExtCodeID="C119116"><CDISCSynonym>ADT01-Injured Because of Your Drinking</CDISCSynonym><CDISCDefinition>Alcohol Use Disorder Identification Test: Self-Report Version - Have you or someone else been injured because of your drinking?</CDISCDefinition><PreferredTerm>AUDIT - Injured Because of Drinking</PreferredTerm></EnumeratedItem><EnumeratedItem CodedValue="ADT01-Need Drink Morning After Drinking" nciodm:ExtCodeID="C119113"><CDISCSynonym>ADT01-Need Drink Morning After Drinking</CDISCSynonym><CDISCDefinition>Alcohol Use Disorder Identification Test: Self-Report Version - How often during the last year have you needed a first drink in the morning to get yourself going after a heavy drinking session?</CDISCDefinition><PreferredTerm>AUDIT - How Often Last Year Need a Drink in the Morning to Get Going</PreferredTerm></EnumeratedItem><EnumeratedItem CodedValue="ADT01-Not Able Stop Drinking Once Start" nciodm:ExtCodeID="C119111"><CDISCSynonym>ADT01-Not Able Stop Drinking Once Start</CDISCSynonym><CDISCDefinition>Alcohol Use Disorder Identification Test: Self-Report Version - How often during the last year have you found that you were not able to stop drinking once you had started?</CDISCDefinition><PreferredTerm>AUDIT - How Often Last Year You Found Not Able to Stop Drinking</PreferredTerm></EnumeratedItem><EnumeratedItem CodedValue="ADT01-Six or More Drinks One Occasion" nciodm:ExtCodeID="C119110"><CDISCSynonym>ADT01-Six or More Drinks One Occasion</CDISCSynonym><CDISCDefinition>Alcohol Use Disorder Identification Test: Self-Report Version - How often do you have six or more drinks on one occasion?</CDISCDefinition><PreferredTerm>AUDIT - How Often Have Six or More Drinks</PreferredTerm></EnumeratedItem><EnumeratedItem CodedValue="ADT01-Suggested to Cut Down" nciodm:ExtCodeID="C119117"><CDISCSynonym>ADT01-Suggested to Cut Down</CDISCSynonym><CDISCDefinition>Alcohol Use Disorder Identification Test: Self-Report Version - Has a relative, friend, doctor, or other health care worker been concerned about your drinking or suggested you cut down?</CDISCDefinition><PreferredTerm>AUDIT - Concerned About Your Drinking</PreferredTerm></EnumeratedItem><EnumeratedItem CodedValue="ADT01-Total" nciodm:ExtCodeID="C119118"><CDISCSynonym>ADT01-Total</CDISCSynonym><CDISCDefinition>Alcohol Use Disorder Identification Test: Self-Report Version - Total.</CDISCDefinition><PreferredTerm>AUDIT - Total</PreferredTerm></EnumeratedItem><EnumeratedItem CodedValue="ADT01-Unable to Remember What Happened" nciodm:ExtCodeID="C119115"><CDISCSynonym>ADT01-Unable to Remember What Happened</CDISCSynonym><CDISCDefinition>Alcohol Use Disorder Identification Test: Self-Report Version - How often during the last year have you been unable to remember what happened the night before because of your drinking?</CDISCDefinition><PreferredTerm>AUDIT - How Often Last Year You Unable to Remember What Happened the Night Before</PreferredTerm></EnumeratedItem><CDISCSubmissionValue>ADT01TN</CDISCSubmissionValue><CDISCSynonym>Alcohol Use Disorder Identification Test: Self-Report Version Questionnaire Test Name</CDISCSynonym><PreferredTerm>CDISC Questionnaire AUDIT-SR Test Name Terminology</PreferredTerm></CodeList><CodeList OID="CL.C161623.AVPU01TC" Name="Alert Verbal Painful Unresponsive Scale Clinical Classification Test Code" DataType="text" nciodm:ExtCodeID="C161623" nciodm:CodeListExtensible="No"><Description><TranslatedText xml:lang="en">Alert Verbal Painful Unresponsive Scale test code.</TranslatedText></Description><EnumeratedItem CodedValue="AVPU0101" nciodm:ExtCodeID="C161740"><CDISCSynonym>AVPU01-Responsiveness</CDISCSynonym><CDISCDefinition>Alert Verbal Painful Unresponsive Scale - Responsivenesss.</CDISCDefinition><PreferredTerm>AVPU - Responsiveness</PreferredTerm></EnumeratedItem><CDISCSubmissionValue>AVPU01TC</CDISCSubmissionValue><CDISCSynonym>Alert Verbal Painful Unresponsive Scale Clinical Classification Test Code</CDISCSynonym><PreferredTerm>CDISC Clinical Classification AVPU Test Code Terminology</PreferredTerm></CodeList><CodeList OID="CL.C161622.AVPU01TN" Name="Alert Verbal Painful Unresponsive Scale Clinical Classification Test Name" DataType="text" nciodm:ExtCodeID="C161622" nciodm:CodeListExtensible="No"><Description><TranslatedText xml:lang="en">Alert Verbal Painful Unresponsive Scale test name.</TranslatedText></Description><EnumeratedItem CodedValue="AVPU01-Responsiveness" nciodm:ExtCodeID="C161740"><CDISCSynonym>AVPU01-Responsiveness</CDISCSynonym><CDISCDefinition>Alert Verbal Painful Unresponsive Scale - Responsivenesss.</CDISCDefinition><PreferredTerm>AVPU - Responsiveness</PreferredTerm></EnumeratedItem><CDISCSubmissionValue>AVPU01TN</CDISCSubmissionValue><CDISCSynonym>Alert Verbal Painful Unresponsive Scale Clinical Classification Test Name</CDISCSynonym><PreferredTerm>CDISC Clinical Classification AVPU Test Name Terminology</PreferredTerm></CodeList><CodeList OID="CL.C100132.ADCTC" Name="Alzheimer's Disease Assessment Scale - Cognitive CDISC Version Questionnaire Test Code" DataType="text" nciodm:ExtCodeID="C100132" nciodm:CodeListExtensible="No"><Description><TranslatedText xml:lang="en">ADAS-Cog CDISC Version test code.</TranslatedText></Description><EnumeratedItem CodedValue="ADCCMD" nciodm:ExtCodeID="C100209"><CDISCSynonym>Commands</CDISCSynonym><CDISCDefinition>Alzheimer's Disease Assessment Scale-Cognitive CDISC Version - Summary score for commands.</CDISCDefinition><PreferredTerm>CDISC ADAS-Cog - Commands Summary Score</PreferredTerm></EnumeratedItem><EnumeratedItem CodedValue="ADCCMD01" nciodm:ExtCodeID="C100210"><CDISCSynonym>Commands: Fist</CDISCSynonym><CDISCDefinition>Alzheimer's Disease Assessment Scale-Cognitive CDISC Version - Commands task for making a fist.</CDISCDefinition><PreferredTerm>CDISC ADAS-Cog - Commands: Fist</PreferredTerm></EnumeratedItem><EnumeratedItem CodedValue="ADCCMD02" nciodm:ExtCodeID="C100211"><CDISCSynonym>Commands: Ceiling</CDISCSynonym><CDISCDefinition>Alzheimer's Disease Assessment Scale-Cognitive CDISC Version - Commands task for pointing to the ceiling then to the floor.</CDISCDefinition><PreferredTerm>CDISC ADAS-Cog - Commands: Ceiling</PreferredTerm></EnumeratedItem><EnumeratedItem CodedValue="ADCCMD03" nciodm:ExtCodeID="C100212"><CDISCSynonym>Commands: Pencil</CDISCSynonym><CDISCDefinition>Alzheimer's Disease Assessment Scale-Cognitive CDISC Version - Commands task for put the pencil on top of the card and then put it back.</CDISCDefinition><PreferredTerm>CDISC ADAS-Cog - Commands: Pencil</PreferredTerm></EnumeratedItem><EnumeratedItem CodedValue="ADCCMD04" nciodm:ExtCodeID="C100213"><CDISCSynonym>Commands: Watch</CDISCSynonym><CDISCDefinition>Alzheimer's Disease Assessment Scale-Cognitive CDISC Version - Commands task for put the watch on the other side of the pencil and then turn over the card.</CDISCDefinition><PreferredTerm>CDISC ADAS-Cog - Commands: Watch</PreferredTerm></EnumeratedItem><EnumeratedItem CodedValue="ADCCMD05" nciodm:ExtCodeID="C100214"><CDISCSynonym>Commands: Shoulder</CDISCSynonym><CDISCDefinition>Alzheimer's Disease Assessment Scale-Cognitive CDISC Version - Commands task for tap each shoulder twice with two fingers keeping your eyes shut.</CDISCDefinition><PreferredTerm>CDISC ADAS-Cog - Commands: Shoulder</PreferredTerm></EnumeratedItem><EnumeratedItem CodedValue="ADCCMP" nciodm:ExtCodeID="C100278"><CDISCSynonym>Comprehension</CDISCSynonym><CDISCDefinition>Alzheimer's Disease Assessment Scale-Cognitive CDISC Version - Ability to comprehend speech.</CDISCDefinition><PreferredTerm>CDISC ADAS-Cog - Comprehension</PreferredTerm></EnumeratedItem><EnumeratedItem CodedValue="ADCCON" nciodm:ExtCodeID="C100279"><CDISCSynonym>Concentration/Distractibility</CDISCSynonym><CDISCDefinition>Alzheimer's Disease Assessment Scale-Cognitive CDISC Version - Ability to concentrate or easily be distracted.</CDISCDefinition><PreferredTerm>CDISC ADAS-Cog - Concentration/Distractibility</PreferredTerm></EnumeratedItem><EnumeratedItem CodedValue="ADCCP" nciodm:ExtCodeID="C100226"><CDISCSynonym>Constructional Praxis</CDISCSynonym><CDISCDefinition>Alzheimer's Disease Assessment Scale-Cognitive CDISC Version - Summary score for constructional praxis.</CDISCDefinition><PreferredTerm>CDISC ADAS-Cog - Constructional Praxis Summary Score</PreferredTerm></EnumeratedItem><EnumeratedItem CodedValue="ADCCP01" nciodm:ExtCodeID="C100227"><CDISCSynonym>Constructional Praxis: Circle</CDISCSynonym><CDISCDefinition>Alzheimer's Disease Assessment Scale-Cognitive CDISC Version - Constructional praxis task for copying a circle.</CDISCDefinition><PreferredTerm>CDISC ADAS-Cog - Constructional Praxis: Circle</PreferredTerm></EnumeratedItem><EnumeratedItem CodedValue="ADCCP02" nciodm:ExtCodeID="C100228"><CDISCSynonym>Constructional Praxis: 2 Rectangles</CDISCSynonym><CDISCDefinition>Alzheimer's Disease Assessment Scale-Cognitive CDISC Version - Constructional praxis task for copying two overlapping rectangles.</CDISCDefinition><PreferredTerm>CDISC ADAS-Cog - Constructional Praxis: 2 Rectangles</PreferredTerm></EnumeratedItem><EnumeratedItem CodedValue="ADCCP03" nciodm:ExtCodeID="C100229"><CDISCSynonym>Constructional Praxis: Diamond</CDISCSynonym><CDISCDefinition>Alzheimer's Disease Assessment Scale-Cognitive CDISC Version - Constructional praxis task for copying a diamond.</CDISCDefinition><PreferredTerm>CDISC ADAS-Cog - Constructional Praxis: Diamond</PreferredTerm></EnumeratedItem><EnumeratedItem CodedValue="ADCCP04" nciodm:ExtCodeID="C100230"><CDISCSynonym>Constructional Praxis: Cube</CDISCSynonym><CDISCDefinition>Alzheimer's Disease Assessment Scale-Cognitive CDISC Version - Constructional praxis task for copying a cube.</CDISCDefinition><PreferredTerm>CDISC ADAS-Cog - Constructional Praxis: Cube</PreferredTerm></EnumeratedItem><EnumeratedItem CodedValue="ADCCPS" nciodm:ExtCodeID="C100231"><CDISCSynonym>Attempt to Draw</CDISCSynonym><CDISCDefinition>Alzheimer's Disease Assessment Scale-Cognitive CDISC Version - Constructional praxis attempted to draw, but drew no forms correctly.</CDISCDefinition><PreferredTerm>CDISC ADAS-Cog - Attempt to Draw</PreferredTerm></EnumeratedItem><EnumeratedItem CodedValue="ADCDIF" nciodm:ExtCodeID="C100277"><CDISCSynonym>Word Finding Difficulty in Spont Speech</CDISCSynonym><CDISCDefinition>Alzheimer's Disease Assessment Scale-Cognitive CDISC Version - Difficulty finding the desired word in spontaneous speech.</CDISCDefinition><PreferredTerm>CDISC ADAS-Cog - Word Difficulty in Spontaneous Speech</PreferredTerm></EnumeratedItem><EnumeratedItem CodedValue="ADCDRL" nciodm:ExtCodeID="C100215"><CDISCSynonym>Delayed Word Recall</CDISCSynonym><CDISCDefinition>Alzheimer's Disease Assessment Scale-Cognitive CDISC Version - Summary score for delayed word recall.</CDISCDefinition><PreferredTerm>CDISC ADAS-Cog - Delayed Word Recall Summary Score</PreferredTerm></EnumeratedItem><EnumeratedItem CodedValue="ADCDRL01" nciodm:ExtCodeID="C100216"><CDISCSynonym>Delayed Word Recall: Word [1]</CDISCSynonym><CDISCDefinition>Alzheimer's Disease Assessment Scale-Cognitive CDISC Version - Delayed word recall task for word 1.</CDISCDefinition><PreferredTerm>CDISC ADAS-Cog - Delayed Word Recall: Word 1</PreferredTerm></EnumeratedItem><EnumeratedItem CodedValue="ADCDRL02" nciodm:ExtCodeID="C100217"><CDISCSynonym>Delayed Word Recall: Word [2]</CDISCSynonym><CDISCDefinition>Alzheimer's Disease Assessment Scale-Cognitive CDISC Version - Delayed word recall task for word 2.</CDISCDefinition><PreferredTerm>CDISC ADAS-Cog - Delayed Word Recall: Word 2</PreferredTerm></EnumeratedItem><EnumeratedItem CodedValue="ADCDRL03" nciodm:ExtCodeID="C100218"><CDISCSynonym>Delayed Word Recall: Word [3]</CDISCSynonym><CDISCDefinition>Alzheimer's Disease Assessment Scale-Cognitive CDISC Version - Delayed word recall task for word 3.</CDISCDefinition><PreferredTerm>CDISC ADAS-Cog - Delayed Word Recall: Word 3</PreferredTerm></EnumeratedItem><EnumeratedItem CodedValue="ADCDRL04" nciodm:ExtCodeID="C100219"><CDISCSynonym>Delayed Word Recall: Word [4]</CDISCSynonym><CDISCDefinition>Alzheimer's Disease Assessment Scale-Cognitive CDISC Version - Delayed word recall task for word 4.</CDISCDefinition><PreferredTerm>CDISC ADAS-Cog - Delayed Word Recall: Word 4</PreferredTerm></EnumeratedItem><EnumeratedItem CodedValue="ADCDRL05" nciodm:ExtCodeID="C100220"><CDISCSynonym>Delayed Word Recall: Word [5]</CDISCSynonym><CDISCDefinition>Alzheimer's Disease Assessment Scale-Cognitive CDISC Version - Delayed word recall task for word 5.</CDISCDefinition><PreferredTerm>CDISC ADAS-Cog - Delayed Word Recall: Word 5</PreferredTerm></EnumeratedItem><EnumeratedItem CodedValue="ADCDRL06" nciodm:ExtCodeID="C100221"><CDISCSynonym>Delayed Word Recall: Word [6]</CDISCSynonym><CDISCDefinition>Alzheimer's Disease Assessment Scale-Cognitive CDISC Version - Delayed word recall task for word 6.</CDISCDefinition><PreferredTerm>CDISC ADAS-Cog - Delayed Word Recall: Word 6</PreferredTerm></EnumeratedItem><EnumeratedItem CodedValue="ADCDRL07" nciodm:ExtCodeID="C100222"><CDISCSynonym>Delayed Word Recall: Word [7]</CDISCSynonym><CDISCDefinition>Alzheimer's Disease Assessment Scale-Cognitive CDISC Version - Delayed word recall task for word 7.</CDISCDefinition><PreferredTerm>CDISC ADAS-Cog - Delayed Word Recall: Word 7</PreferredTerm></EnumeratedItem><EnumeratedItem CodedValue="ADCDRL08" nciodm:ExtCodeID="C100223"><CDISCSynonym>Delayed Word Recall: Word [8]</CDISCSynonym><CDISCDefinition>Alzheimer's Disease Assessment Scale-Cognitive CDISC Version - Delayed word recall task for word 8.</CDISCDefinition><PreferredTerm>CDISC ADAS-Cog - Delayed Word Recall: Word 8</PreferredTerm></EnumeratedItem><EnumeratedItem CodedValue="ADCDRL09" nciodm:ExtCodeID="C100224"><CDISCSynonym>Delayed Word Recall: Word [9]</CDISCSynonym><CDISCDefinition>Alzheimer's Disease Assessment Scale-Cognitive CDISC Version - Delayed word recall task for word 9.</CDISCDefinition><PreferredTerm>CDISC ADAS-Cog - Delayed Word Recall: Word 9</PreferredTerm></EnumeratedItem><EnumeratedItem CodedValue="ADCDRL10" nciodm:ExtCodeID="C100225"><CDISCSynonym>Delayed Word Recall: Word [10]</CDISCSynonym><CDISCDefinition>Alzheimer's Disease Assessment Scale-Cognitive CDISC Version - Delayed word recall task for word 10.</CDISCDefinition><PreferredTerm>CDISC ADAS-Cog - Delayed Word Recall: Word 10</PreferredTerm></EnumeratedItem><EnumeratedItem CodedValue="ADCIP" nciodm:ExtCodeID="C100232"><CDISCSynonym>Ideational Praxis</CDISCSynonym><CDISCDefinition>Alzheimer's Disease Assessment Scale-Cognitive CDISC Version - Summary score for ideational praxis.</CDISCDefinition><PreferredTerm>CDISC ADAS-Cog - Ideational Praxis Summary Score</PreferredTerm></EnumeratedItem><EnumeratedItem CodedValue="ADCIP01" nciodm:ExtCodeID="C100233"><CDISCSynonym>Ideational Praxis: Fold</CDISCSynonym><CDISCDefinition>Alzheimer's Disease Assessment Scale-Cognitive CDISC Version - Ideational praxis task for folding the paper.</CDISCDefinition><PreferredTerm>CDISC ADAS-Cog - Ideational Praxis: Fold</PreferredTerm></EnumeratedItem><EnumeratedItem CodedValue="ADCIP02" nciodm:ExtCodeID="C100234"><CDISCSynonym>Ideational Praxis: Insert</CDISCSynonym><CDISCDefinition>Alzheimer's Disease Assessment Scale-Cognitive CDISC Version - Ideational praxis task for put the paper in the envelop.</CDISCDefinition><PreferredTerm>CDISC ADAS-Cog - Ideational Praxis: Insert</PreferredTerm></EnumeratedItem><EnumeratedItem CodedValue="ADCIP03" nciodm:ExtCodeID="C100235"><CDISCSynonym>Ideational Praxis: Seal</CDISCSynonym><CDISCDefinition>Alzheimer's Disease Assessment Scale-Cognitive CDISC Version - Ideational praxis task for seal the envelop.</CDISCDefinition><PreferredTerm>CDISC ADAS-Cog - Ideational Praxis: Seal</PreferredTerm></EnumeratedItem><EnumeratedItem CodedValue="ADCIP04" nciodm:ExtCodeID="C100236"><CDISCSynonym>Ideational Praxis: Address</CDISCSynonym><CDISCDefinition>Alzheimer's Disease Assessment Scale-Cognitive CDISC Version - Ideational praxis task for address the envelop to yourself.</CDISCDefinition><PreferredTerm>CDISC ADAS-Cog - Ideational Praxis: Address</PreferredTerm></EnumeratedItem><EnumeratedItem CodedValue="ADCIP05" nciodm:ExtCodeID="C100237"><CDISCSynonym>Ideational Praxis: Stamp</CDISCSynonym><CDISCDefinition>Alzheimer's Disease Assessment Scale-Cognitive CDISC Version - Ideational praxis task for showing where the stamp goes.</CDISCDefinition><PreferredTerm>CDISC ADAS-Cog - Ideational Praxis: Stamp</PreferredTerm></EnumeratedItem><EnumeratedItem CodedValue="ADCMZ" nciodm:ExtCodeID="C100284"><CDISCSynonym>Executive Function Maze</CDISCSynonym><CDISCDefinition>Alzheimer's Disease Assessment Scale-Cognitive CDISC Version - Summary score for the executive function maze tasks.</CDISCDefinition><PreferredTerm>CDISC ADAS-Cog - Executive Function Maze Summary Score</PreferredTerm></EnumeratedItem><EnumeratedItem CodedValue="ADCMZ01" nciodm:ExtCodeID="C100285"><CDISCSynonym>Executive Function Maze: Errors</CDISCSynonym><CDISCDefinition>Alzheimer's Disease Assessment Scale-Cognitive CDISC Version - Number of errors during the executive function maze task.</CDISCDefinition><PreferredTerm>CDISC ADAS-Cog - Executive Function Maze: Errors</PreferredTerm></EnumeratedItem><EnumeratedItem CodedValue="ADCMZ02" nciodm:ExtCodeID="C100286"><CDISCSynonym>Executive Function Maze: Time</CDISCSynonym><CDISCDefinition>Alzheimer's Disease Assessment Scale-Cognitive CDISC Version - The time in seconds stored in ISO 8601 time for the executive function maze task.</CDISCDefinition><PreferredTerm>CDISC ADAS-Cog - Executive Function Maze: Time</PreferredTerm></EnumeratedItem><EnumeratedItem CodedValue="ADCNC" nciodm:ExtCodeID="C100280"><CDISCSynonym>Number Cancellation</CDISCSynonym><CDISCDefinition>Alzheimer's Disease Assessment Scale-Cognitive CDISC Version - Summary score for the number cancellation tasks.</CDISCDefinition><PreferredTerm>CDISC ADAS-Cog - Number Cancellation Summary Score</PreferredTerm></EnumeratedItem><EnumeratedItem CodedValue="ADCNC01" nciodm:ExtCodeID="C100281"><CDISCSynonym>Number Cancellation: Correct</CDISCSynonym><CDISCDefinition>Alzheimer's Disease Assessment Scale-Cognitive CDISC Version - Number of targets hit during the number cancellation task.</CDISCDefinition><PreferredTerm>CDISC ADAS-Cog - Number Cancellation: Correct</PreferredTerm></EnumeratedItem><EnumeratedItem CodedValue="ADCNC02" nciodm:ExtCodeID="C100282"><CDISCSynonym>Number Cancellation: Errors</CDISCSynonym><CDISCDefinition>Alzheimer's Disease Assessment Scale-Cognitive CDISC Version - Number of errors during the number cancellation task.</CDISCDefinition><PreferredTerm>CDISC ADAS-Cog - Number Cancellation: Errors</PreferredTerm></EnumeratedItem><EnumeratedItem CodedValue="ADCNC03" nciodm:ExtCodeID="C100283"><CDISCSynonym>Number Cancellation: Remind</CDISCSynonym><CDISCDefinition>Alzheimer's Disease Assessment Scale-Cognitive CDISC Version - Number of times reminded for the number cancellation task.</CDISCDefinition><PreferredTerm>CDISC ADAS-Cog - Number Cancellation: Remind</PreferredTerm></EnumeratedItem><EnumeratedItem CodedValue="ADCOF" nciodm:ExtCodeID="C100191"><CDISCSynonym>Naming Objects and Fingers</CDISCSynonym><CDISCDefinition>Alzheimer's Disease Assessment Scale-Cognitive CDISC Version - Naming task summary score for object and fingers.</CDISCDefinition><PreferredTerm>CDISC ADAS-Cog - Naming Objects and Fingers Summary Score</PreferredTerm></EnumeratedItem><EnumeratedItem CodedValue="ADCOFF01" nciodm:ExtCodeID="C100204"><CDISCSynonym>Naming Objects and Fingers: Thumb</CDISCSynonym><CDISCDefinition>Alzheimer's Disease Assessment Scale-Cognitive CDISC Version - Naming task for fingers of the dominant hand, thumb.</CDISCDefinition><PreferredTerm>CDISC ADAS-Cog - Naming Objects and Fingers: Thumb</PreferredTerm></EnumeratedItem><EnumeratedItem CodedValue="ADCOFF02" nciodm:ExtCodeID="C100205"><CDISCSynonym>Naming Objects and Fingers: Pointer</CDISCSynonym><CDISCDefinition>Alzheimer's Disease Assessment Scale-Cognitive CDISC Version - Naming task for fingers of the dominant hand, index, or pointer finger.</CDISCDefinition><PreferredTerm>CDISC ADAS-Cog - Naming Objects and Fingers: Pointer</PreferredTerm></EnumeratedItem><EnumeratedItem CodedValue="ADCOFF03" nciodm:ExtCodeID="C100206"><CDISCSynonym>Namin