OID,Name,Type,Description,Expression Context,Expression Code,Document,Pages
MT.ABLFL,Algorithm to derive ABLFL,Computation,"Y if VISITNUM=1, null otherwise",,,,
MT.ADADAS.ADT,Algorithm to derive ADADAS.ADT,Computation,SAS date from QS.QSDTC,,,,
MT.ADADAS.ANL01FL,Algorithm to derive ADADAS.ANL01FL,Computation,"If multiple visits fall into the same visit window, then the one closest to the target date is chosen for analysis. These are flagged with ANL01FL=""Y"".",,,,
MT.ADADAS.AVAL.ACTOT,Algorithm to derive ADADAS.AVAL.ACTOT,Computation,"Sum of ADAS scores for items 1, 2, 4, 5, 6, 7, 8, 11, 12, 13, and 14, see SAP section 14.2 for details on adjusting for missing values.",,,,
MT.ADADAS.AVISIT,Algorithm to derive ADADAS.AVISIT,Computation,"Derived based on windowing algorithm described in SAP, Section 8.2",,,,
MT.ADADAS.AWHI,Algorithm to derive ADADAS.AWHI,Computation,"End day of the window, specified in the SAP.",,,,
MT.ADADAS.AWLO,Algorithm to derive ADADAS.AWLO,Computation,"Start day of the window, specified in the SAP.",,,,
MT.ADADAS.AWRANGE,Algorithm to derive ADADAS.AWRANGE,Computation,"Window range, specified in the SAP.",,,,
MT.ADADAS.AWTARGET,Algorithm to derive ADADAS.AWTARGET,Computation,"Target day within the window, specified in the SAP.",,,,
MT.ADADAS.AWTDIFF,Algorithm to derive ADADAS.AWTDIFF,Computation,Absolute difference between AWTARGET and ADY,,,,
MT.ADADAS.AWU,Algorithm to derive ADADAS.AWU,Computation,"Assigned as ""DAYS"".",,,,
MT.ADADAS.BASE,Algorithm to derive ADADAS.BASE,Computation,QS.QSSTRESN when QS.QSBLFL=Y (QS.VISITNUM=3),,,,
MT.ADAE.ADURN,Algorithm to derive ADAE.ADURN,Computation,ADURN=AENDT-ASTDT+1,,,,
MT.ADAE.ADURU,Algorithm to derive ADAE.ADURU,Computation,If ADURN is not missing then ADURU='DAY',,,,
MT.ADAE.AENDT,Algorithm to derive ADAE.AENDT,Computation,"AE.AEENDTC, converted to a numeric SAS date",,,,
MT.ADAE.AENDY,Algorithm to derive ADAE.AENDY,Computation,IF AENDT>=TRTSDT>MISSING then AENDY=AENDT-TRTSDT+1 Else if TRTSDT>AENDT>MISSING then AENDY=AENDT-TRTSDT,,,,
MT.ADAE.AOCC01FL,Algorithm to derive ADAE.AOCC01FL,Computation,"Subset to CQ01NAM='' and TRTEMFL='Y' and sort by Subject (USUBJID), Start Date (ASTDT), and Sequence Number (AESEQ) and flag the first record (set AOCC01FL=?Y?) within each Subject (Flag First Treatment Emergent Dermatological Event for Time to Event Analysis)",,,,
MT.ADAE.AOCC02FL,Algorithm to derive ADAE.AOCC02FL,Computation,"Subset to TRTEMFL='Y' and AESER='Y' and sort by Subject (USUBJID), Start Date (ASTDT), and Sequence Number (AESEQ) and flag the first record (set AOCC02FL=?Y?) within each Subject",,,,
MT.ADAE.AOCC03FL,Algorithm to derive ADAE.AOCC03FL,Computation,"Subset to TRTEMFL='Y' and AESER='Y' and sort by Subject (USUBJID), System Organ Class (AEBODSYS), Start Date (ASTDT), and Sequence Number (AESEQ) and flag the first record (set AOCC03FL=?Y?) within each Subject and SOC",,,,
MT.ADAE.AOCC04FL,Algorithm to derive ADAE.AOCC04FL,Computation,"Subset to TRTEMFL='Y' and AESER='Y' and sort by Subject (USUBJID), System Organ Class (AEBODSYS), Preferred Term (AEDECOD), Start Date (ASTDT), and Sequence Number (AESEQ) and flag the first record (set AOCC04FL=?Y?) within each Subject, SOC, and PT",,,,
MT.ADAE.AOCCFL,Algorithm to derive ADAE.AOCCFL,Computation,"Subset to TRTEMFL='Y' and sort by Subject (USUBJID), Start Date (ASTDT), and Sequence Number (AESEQ) and flag the first record (set AOCCFL=?Y?) within each Subject",,,,
MT.ADAE.AOCCPFL,Algorithm to derive ADAE.AOCCPFL,Computation,"Subset to TRTEMFL='Y' and sort by Subject (USUBJID), System Organ Class (AEBODSYS), Preferred Term (AEDECOD), Start Date (ASTDT), and Sequence Number (AESEQ) and flag the first record (set AOCCPFL=?Y?) within each Subject, SOC, and PT",,,,
MT.ADAE.AOCCSFL,Algorithm to derive ADAE.AOCCSFL,Computation,"Subset to TRTEMFL='Y' and sort by Subject (USUBJID), System Organ Class (AEBODSYS), Start Date (ASTDT), and Sequence Number (AESEQ) and flag the first record (set AOCCSFL=?Y?) within each Subject and SOC",,,,
MT.ADAE.ASTDT,Algorithm to derive ADAE.ASTDT,Computation,"AE.AESTDTC, converted to a numeric SAS date. Some events with partial dates are imputed in a conservative manner. If the day component is missing, a value of '01' is used. If both the month and day are missing no imputation is performed as these dates clearly indicate a start prior to the beginning of treatment. There are no events with completely missing start dates.",,,,
MT.ADAE.ASTDTF,Algorithm to derive ADAE.ASTDTF,Computation,ASTDTF='D' if the day value within the character date is imputed. Note that only day values needed to be imputed for this study.,,,,
MT.ADAE.ASTDY,Algorithm to derive ADAE.ASTDY,Computation,IF ASTDT>=TRTSDT>MISSING then ASTDY=ASTDT-TRTSDT+1 Else if TRTSDT>ASTDT>MISSING then ASTDY=ASTDT-TRTSDT,,,,
MT.ADAE.CQ01NAM,Algorithm to derive ADAE.CQ01NAM,Computation,"If AEDECOD contains any of the character strings of ('APPLICATION', 'DERMATITIS', 'ERYTHEMA', 'BLISTER') OR if AEBODSYS='SKIN AND SUBC UTANEOUS TISSUE DISORDERS' but AEDECOD is not in ('COLD SWEAT', 'HYPERHIDROSIS', 'ALOPECIA') then CQ01NAM='DERMATOLOGIC EVENTS' Otherwise CQ01NAM=NULL",,,,
MT.ADAE.TRTEMFL,Algorithm to derive ADAE.TRTEMFL,Computation,If ASTDT >= TRTSDT > . then TRTEMFL='Y'. Otherwise TRTEMFL='N',,,,
MT.ADCIBC.ADT,Algorithm to derive ADCIBC.ADT,Computation,SAS date from QS.QSDTC,,,,
MT.ADCIBC.ANL01FL,Algorithm to derive ADCIBC.ANL01FL,Computation,Set ANL01FL=Y based on SAP Page 10 analysis windows.,,,,
MT.ADCIBC.AVISIT,Algorithm to derive ADCIBC.AVISIT,Computation,Character version of the visit.,,,,
MT.ADCIBC.AWHI,Algorithm to derive ADCIBC.AWHI,Computation,"End day of the window, specified in the SAP.",,,,
MT.ADCIBC.AWLO,Algorithm to derive ADCIBC.AWLO,Computation,"Start day of the window, specified in the SAP.",,,,
MT.ADCIBC.AWRANGE,Algorithm to derive ADCIBC.AWRANGE,Computation,"Window range, specified in the SAP.",,,,
MT.ADCIBC.AWTARGET,Algorithm to derive ADCIBC.AWTARGET,Computation,"Target day within the window, specified in the SAP.",,,,
MT.ADCIBC.AWTDIFF,Algorithm to derive ADCIBC.AWTDIFF,Computation,Absolute difference between AWTARGET and ADY,,,,
MT.ADCIBC.AWU,Algorithm to derive ADCIBC.AWU,Computation,"Assigned as ""DAYS"".",,,,
MT.ADLBC.ADT,Algorithm to derive ADLBC.ADT,Computation,LB.LBDTC converted to SAS date,,,,
MT.ADLBC.AENTMTFL,Algorithm to derive ADLBC.AENTMTFL,Computation,"Last observed value for this lab parameter during treatment phase: 'Y' if VISITNUM=12, if subject discontinues prior to VISIT 12, then this variable is set to 'Y' if this is the last assessment of this analyte for the subject",,,,
MT.ADLBC.ANL01FL,Algorithm to derive ADLBC.ANL01FL,Computation,"Y if the absolute value of this AVAL is the largest for the subject for VISITS 4-12 inclusive, null otherwise; only the first on-treatment AVAL that has absolute val equal to the max is flagged.",,,,
MT.ADLBC.ANRIND,Algorithm to derive ADLBC.ANRIND,Computation,if AVAL < (0.5*LBSTNRLO) then ANRIND='L'. Else if AVAL > 1.5* LBSTNRHI then ANRIND='H'. ANRIND='N' otherwise. Used for shift tables,,,,
MT.ADLBC.AVISIT,Algorithm to derive ADLBC.AVISIT,Computation,Analysis Visit,,,,
MT.ADLBC.BASE,Algorithm to derive ADLBC.BASE,Computation,ADLBC.LBSTRESN when ADLBC.ABLFL=Y,,,,
MT.ADLBC.BR2A1HI,Algorithm to derive ADLBC.BR2A1HI,Computation,AVAL / A1LO at baseline,,,,
MT.ADLBC.BR2A1LO,Algorithm to derive ADLBC.BR2A1LO,Computation,AVAL / A1HI at baseline,,,,
MT.ADLBC.PARAM,Algorithm to derive ADLBC.PARAM,Computation,"For PARAMN<100L same as LB.LBTEST concatenated with LB.LBSTRESU. For PARAMN>100: LB.LBTEST concatenated with LB.LBSTRESU concatenated with "" change from previous visit, relative to normal range""",,,,
MT.ADLBC.PARAMCD,Algorithm to derive ADLBC.PARAMCD,Computation,For PARAMN<100: same as LBTESTCD. For PARAMN>100: _ + LBTESTCD,,,,
MT.ADLBC.R2A1HI,Algorithm to derive ADLBC.R2A1HI,Computation,AVAL / A1LO,,,,
MT.ADLBC.R2A1LO,Algorithm to derive ADLBC.R2A1LO,Computation,AVAL / A1HI,,,,
MT.ADLBCPV.ADT,Algorithm to derive ADLBCPV.ADT,Computation,LB.LBDTC converted to SAS date,,,,
MT.ADLBCPV.AENTMTFL,Algorithm to derive ADLBCPV.AENTMTFL,Computation,"Last observed value for this lab parameter during treatment phase: 'Y' if VISITNUM=12. If subject discontinues prior to VISIT 12, then this variable is set to 'Y' if this is the last assessment of this analyte for the subject",,,,
MT.ADLBCPV.ANL01FL,Algorithm to derive ADLBCPV.ANL01FL,Computation,Y' if the absolute value of this AVAL is the largest for the subject for VISITS 4-12 inclusive. Null otherwise. Only the first on-treatment AVAL that has absolute val equal to the max is flagged,,,,
MT.ADLBCPV.ANRIND,Algorithm to derive ADLBCPV.ANRIND,Computation,if AVAL < -1 then ANRIND='L'. If AVAL > 1 then ANRIND='H'. ANRIND='N' otherwise. Null if LBBLFL=Y or AVAL=null,,,,
MT.ADLBCPV.AVAL,Algorithm to derive ADLBCPV.AVAL,Computation,(LBSTRESN - previous LBSTRESN)/(.5*(LBSTNRHI-LBSTNRLO)). Null if LBBLFL=Y,,,,
MT.ADLBCPV.AVISIT,Algorithm to derive ADLBCPV.AVISIT,Computation,Analysis Visit,,,,
MT.ADLBCPV.BASE,Algorithm to derive ADLBCPV.BASE,Computation,ADLBCPV.LBSTRESN when ADLBCPV.ABLFL=Y,,,,
MT.ADLBCPV.BR2A1HI,Algorithm to derive ADLBCPV.BR2A1HI,Computation,AVAL / A1LO at baseline,,,,
MT.ADLBCPV.BR2A1LO,Algorithm to derive ADLBCPV.BR2A1LO,Computation,AVAL / A1HI at baseline,,,,
MT.ADLBCPV.PARAM,Algorithm to derive ADLBCPV.PARAM,Computation,"For PARAMN<100: same as LB.LBTEST concatenated with LB.LBSTRESU. For PARAMN>100: LB.LBTEST concatenated with LB.LBSTRESU concatenated with "" change from previous visit, relative to normal range""",,,,
MT.ADLBCPV.PARAMCD,Algorithm to derive ADLBCPV.PARAMCD,Computation,For PARAMN<100: same as LBTESTCD. For PARAMN>100: _ + LBTESTCD,,,,
MT.ADLBCPV.R2A1HI,Algorithm to derive ADLBCPV.R2A1HI,Computation,AVAL / A1LO,,,,
MT.ADLBCPV.R2A1LO,Algorithm to derive ADLBCPV.R2A1LO,Computation,AVAL / A1HI,,,,
MT.ADLBH.ADT,Algorithm to derive ADLBH.ADT,Computation,LB.LBDTC converted to SAS date,,,,
MT.ADLBH.AENTMTFL,Algorithm to derive ADLBH.AENTMTFL,Computation,"Last observed value for this lab test during treatment phase: 'Y' if VISITNUM=12. If subject discontinues prior to VISIT 12, then this variable is set to 'Y' if this is the last assessment of this analyte for the subject",,,,
MT.ADLBH.ANL01FL,Algorithm to derive ADLBH.ANL01FL,Computation,Y' if the absolute value of this AVAL is the largest for the subject for VISITS 4-12 inclusive. Null otherwise. Only the first on-treatment AVAL that has absolute val equal to the max is flagged,,,,
MT.ADLBH.ANRIND,Algorithm to derive ADLBH.ANRIND,Computation,If AVAL < (0.5*LBSTNRLO) then ANRIND='L'. If LAVAL > 1.5* LBSTNRHI then ANRIND='H'. ANRIND='N' otherwise. Used for shift tables.,,,,
MT.ADLBH.AVISIT,Algorithm to derive ADLBH.AVISIT,Computation,Analysis Visit,,,,
MT.ADLBH.BASE,Algorithm to derive ADLBH.BASE,Computation,LBSTRESN when ADLBC.ABLFL=Y,,,,
MT.ADLBH.BR2A1HI,Algorithm to derive ADLBH.BR2A1HI,Computation,AVAL / A1LO at baseline,,,,
MT.ADLBH.BR2A1LO,Algorithm to derive ADLBH.BR2A1LO,Computation,AVAL / A1HI at baseline,,,,
MT.ADLBH.PARAM,Algorithm to derive ADLBH.PARAM,Computation,"For PARAMN<100: same as LBTEST concatenated with LBSTRESU. For PARAMN>100: LBTEST concatenated with LB.LBSTRESU concatenated with ""change from previous visit, relative to normal range""",,,,
MT.ADLBH.PARAMCD,Algorithm to derive ADLBH.PARAMCD,Computation,For PARAMN<100: same as LBTESTCD. For PARAMN>100: _ + LBTESTCD,,,,
MT.ADLBH.R2A1HI,Algorithm to derive ADLBH.R2A1HI,Computation,AVAL / A1LO,,,,
MT.ADLBH.R2A1LO,Algorithm to derive ADLBH.R2A1LO,Computation,AVAL / A1HI,,,,
MT.ADLBHPV.ADT,Algorithm to derive ADLBHPV.ADT,Computation,LB.LBDTC converted to SAS date,,,,
MT.ADLBHPV.AENTMTFL,Algorithm to derive ADLBHPV.AENTMTFL,Computation,"Last observed value for this lab test during treatment phase: 'Y' if VISITNUM=12. If subject discontinues prior to VISIT 12, then this variable is set to 'Y' if this is the last assessment of this analyte for the subject",,,,
MT.ADLBHPV.ANL01FL,Algorithm to derive ADLBHPV.ANL01FL,Computation,Y' if the absolute value of this AVAL is the largest for the subject for VISITS 4-12 inclusive. Null otherwise. Only the first on-treatment AVAL that has absolute val equal to the max is flagged,,,,
MT.ADLBHPV.ANRIND,Algorithm to derive ADLBHPV.ANRIND,Computation,If AVAL < -1 then ANRIND='L'. If AVAL > 1 then ANRIND='H'. ANRIND='N' otherwise. Null if LBBLFL=Y or AVAL=null,,,,
MT.ADLBHPV.AVAL,Algorithm to derive ADLBHPV.AVAL,Computation,(LBSTRESN - previous LBSTRESN)/(.5*(LBSTNRHI-LBSTNRLO)). Null if LBBLFL=Y,,,,
MT.ADLBHPV.AVISIT,Algorithm to derive ADLBHPV.AVISIT,Computation,Analysis Visit,,,,
MT.ADLBHPV.BASE,Algorithm to derive ADLBHPV.BASE,Computation,ADLBHPV.LBSTRESN when ADLBHPV.ABLFL=Y,,,,
MT.ADLBHPV.BR2A1HI,Algorithm to derive ADLBHPV.BR2A1HI,Computation,AVAL / A1LO at baseline,,,,
MT.ADLBHPV.BR2A1LO,Algorithm to derive ADLBHPV.BR2A1LO,Computation,AVAL / A1HI at baseline,,,,
MT.ADLBHPV.PARAM,Algorithm to derive ADLBHPV.PARAM,Computation,"For PARAMN<100: same as LB.LBTEST concatenated with LB.LBSTRESU. For PARAMN>100: LB.LBTEST concatenated with LB.LBSTRESU concatenated with "" change from previous visit, relative to normal range""",,,,
MT.ADLBHPV.PARAMCD,Algorithm to derive ADLBHPV.PARAMCD,Computation,For PARAMN<100: same as LBTESTCD. For PARAMN>100: _ + LBTESTCD,,,,
MT.ADLBHPV.R2A1HI,Algorithm to derive ADLBHPV.R2A1HI,Computation,AVAL / A1LO,,,,
MT.ADLBHPV.R2A1LO,Algorithm to derive ADLBHPV.R2A1LO,Computation,AVAL / A1HI,,,,
MT.ADLBHY.ADT,Algorithm to derive ADLBHY.ADT,Computation,LB.LBDTC converted to SAS date,,,,
MT.ADLBHY.AVAL.BILIHY,Algorithm to derive ADLBHY.AVAL.BILIHY,Computation,"For a given visit, if param='BILI' and r2a1hi > 1.5 then aval=1. Otherwise if param='BILI' then aval=0",,,,
MT.ADLBHY.AVAL.HYLAW,Algorithm to derive ADLBHY.AVAL.HYLAW,Computation,"For a given visit, if param='BILHY' or 'TRANSHY' and if both has aval=1 then for this param then aval=1. Otherwise if for a given visit, if param='BILHY' or 'TRANSHY' then aval=0.",,,,
MT.ADLBHY.AVAL.TRANSHY,Algorithm to derive ADLBHY.AVAL.TRANSHY,Computation,"For a given visit, if param='ALT' or 'AST' and if either r2a1hi > 1.5 then aval=1. Otherwise if param='ALT' or 'AST' then aval=0",,,,
MT.ADLBHY.AVISIT,Algorithm to derive ADLBHY.AVISIT,Computation,Analysis Visit,,,,
MT.ADLBHY.BASE,Algorithm to derive ADLBHY.BASE,Computation,ADLBC.AVAL when ADLBC.ABLFL=Y,,,,
MT.ADLBHY.CRIT1FL,Algorithm to derive ADLBHY.CRIT1FL,Computation,If R21AHI > 1.5 then set to 'Y'. If R2A1HI is not missing then set to 'N'. Else set to missing.,,,,
MT.ADLBHY.PARAM,Algorithm to derive ADLBHY.PARAM,Computation,same as LBTEST concatenated with LBSTRESU except for hylaw params,,,,
MT.ADNPIX.ADT,Algorithm to derive ADNPIX.ADT,Computation,SAS date from QS.QSDTC,,,,
MT.ADNPIX.ANL01FL,Algorithm to derive ADNPIX.ANL01FL,Computation,Set ANL01FL=Y based on SAP Page 10 analysis windows.,,,,
MT.ADNPIX.AVAL.NPTOTMN,Algorithm to derive ADNPIX.AVAL.NPTOTMN,Computation,take the mean of AVAL when PARAMCD=NPTOT from week 4 to 24.,,,,
MT.ADNPIX.AVISIT,Algorithm to derive ADNPIX.AVISIT,Computation,Character version of the visit.,,,,
MT.ADNPIX.AWHI,Algorithm to derive ADNPIX.AWHI,Computation,"End day of the window, specified in the SAP Page 10.",,,,
MT.ADNPIX.AWLO,Algorithm to derive ADNPIX.AWLO,Computation,"Start day of the window, specified in the SAP Page 10.",,,,
MT.ADNPIX.AWRANGE,Algorithm to derive ADNPIX.AWRANGE,Computation,"Window range, specified in the SAP Page 10.",,,,
MT.ADNPIX.AWTARGET,Algorithm to derive ADNPIX.AWTARGET,Computation,"Target day within the window, specified in the SAP Page 10.",,,,
MT.ADNPIX.AWTDIFF,Algorithm to derive ADNPIX.AWTDIFF,Computation,Absolute difference between AWTARGET and ADY,,,,
MT.ADNPIX.AWU,Algorithm to derive ADNPIX.AWU,Computation,"Assigned as ""DAYS"".",,,,
MT.ADNPIX.BASE,Algorithm to derive ADNPIX.BASE,Computation,QS.QSSTRESN when QS.QSBLFL=Y.,,,,
MT.ADSL.AGEGR1,Algorithm to derive ADSL.AGEGR1,Computation,Character variable derived from ADSL.AGEGR1N,,,,
MT.ADSL.AGEGR1N,Algorithm to derive ADSL.AGEGR1N,Computation,AGEGR1 = 1 if AGE <65. AGEGR1 = 2 if AGE 65-80. AGEGR1 = 3 if AGE >80.,,,,
MT.ADSL.AVGDD,Algorithm to derive ADSL.AVGDD,Computation,CUMDOSE/TRTDUR,,,,
MT.ADSL.BMIBL,Algorithm to derive ADSL.BMIBL,Computation,WEIGHTBL / ((HEIGHTBL*100)**2),,,,
MT.ADSL.BMIBLGR1,Algorithm to derive ADSL.BMIBLGR1,Computation,BMIBLGR1=Normal if . < BMIBL <25. BMIBLGR1=Overweight if 25 <=BMIBL <30. BMIBLGR1=Obese if BMIBL >=30.,,,,
MT.ADSL.COMP16FL,Algorithm to derive ADSL.COMP16FL,Computation,"Y if subject has a SV.VISITNUM=10 and ENDDT>=date of visit 10, N otherwise",,,,
MT.ADSL.COMP24FL,Algorithm to derive ADSL.COMP24FL,Computation,"Y if subject has a SV.VISITNUM=12 and ENDDT>= date of visit 12 , N otherwise",,,,
MT.ADSL.COMP8FL,Algorithm to derive ADSL.COMP8FL,Computation,"Y if subject has a SV.VISITNUM=8 and ENDDT >= date of visit 8, N otherwise",,,,
MT.ADSL.CUMDOSE,Algorithm to derive ADSL.CUMDOSE,Computation,"For ARMN=0 or 1: CUMDOSE=TRT01PN*TRTDUR. --- For ARMN=2: CUMDOSE will be based on 54mg per day for the # of days subj was in 1st dosing interval (i.e., visit4date-TRTSTDT+1 if 1st interval completed, TRTEDT-TRTSTDT+1 if subj discontinued <=visit 4 and > visit 3), 81mg per day for the # of days subj was in 2nd dosing interval (i.e., visit12date-visit4date if 2nd interval completed, TRTEDT-visit4date if subj discontinued <= visit 12 and > visit 4), and 54mg per day for the # of days subj was in 3rd dosing interval (i.e., TRTEDT - visit12date if subj continued after visit 12).",,,,
MT.ADSL.DCDECOD,Algorithm to derive ADSL.DCDECOD,Computation,DS.DSDECOD where DSCAT='DISPOSITION EVENT',,,,
MT.ADSL.DCREASCD,Algorithm to derive ADSL.DCREASCD,Computation,Grouping of DCDECOD values to support summarizing study completion status and reason for discontinuation,,,,
MT.ADSL.DISCONFL,Algorithm to derive ADSL.DISCONFL,Computation,Y if DCREASCD ^= 'Completed'. Null otherwise,,,,
MT.ADSL.DISONSDT,Algorithm to derive ADSL.DISONSDT,Computation,MH.MHSTDTC where MHCAT='PRIMARY DIAGNOSIS' converted to SAS date,,,,
MT.ADSL.DSRAEFL,Algorithm to derive ADSL.DSRAEFL,Computation,Y if DCREASCD='Adverse Event'. Null otherwise,,,,
MT.ADSL.DURDIS,Algorithm to derive ADSL.DURDIS,Computation,number of months between VISIT1DT and DISONSET,,,,
MT.ADSL.DURDSGR1,Algorithm to derive ADSL.DURDSGR1,Computation,grouping DURDIS values as <12 and >=12,,,,
MT.ADSL.EDUCLVL,Algorithm to derive ADSL.EDUCLVL,Computation,SC.SCSTRESN where SC.SCTESTCD=YEARSEDU,,,,
MT.ADSL.EFFFL,Algorithm to derive ADSL.EFFFL,Computation,Y if SAFFL='Y AND subject has at least one record in QS for ADAS-Cog with VISITNUM>3 AND at least one record in QS for CIBIC+ with VISITNUM>3. N otherwise,,,,
MT.ADSL.EOSSTT,Algorithm to derive ADSL.EOSSTT,Computation,COMPLETED if ADSL.DCDECOD='COMPLETED'. DISCONTINUED if ADSL.DCDECOD not equal to COMPLETED.,,,,
MT.ADSL.HEIGHTBL,Algorithm to derive ADSL.HEIGHTBL,Computation,VSSTRESN when VS.VSTESTCD='HEIGHT' and VS.VISITNUM=1,,,,
MT.ADSL.ITTFL,Algorithm to derive ADSL.ITTFL,Computation,Y if ARMCD ne ' '. N otherwise,,,,
MT.ADSL.MMSETOT,Algorithm to derive ADSL.MMSETOT,Computation,sum of QS.QSORRES values for the subject,,,,
MT.ADSL.RACEN,Algorithm to derive ADSL.RACEN,Computation,Numeric code for RACE,,,,
MT.ADSL.RFENDT,Algorithm to derive ADSL.RFENDT,Computation,RFENDTC converted to SAS date,,,,
MT.ADSL.SAFFL,Algorithm to derive ADSL.SAFFL,Computation,Y if ITTFL='Y' and TRTSDT ne missing. N otherwise,,,,
MT.ADSL.SITEGR1,Algorithm to derive ADSL.SITEGR1,Computation,"Refer to SAP, Section 7.1. If not pooled then SITEGR1=SITEID. If pooled, SITEGR1 will be 900",,,,
MT.ADSL.TRT01A,Algorithm to derive ADSL.TRT01A,Computation,"TRT01A=TRT01P, i.e., no difference between actual and randomized treatment in this study.",,,,
MT.ADSL.TRT01AN,Algorithm to derive ADSL.TRT01AN,Computation,Numeric code for TRT01A which corresponds to the randomized dose,,,,
MT.ADSL.TRT01PN,Algorithm to derive ADSL.TRT01PN,Computation,Numeric code for TRT01P which corresponds to the randomized dose,,,,
MT.ADSL.TRTDUR,Algorithm to derive ADSL.TRTDUR,Computation,TRTEDT-TRTSDT+1,,,,
MT.ADSL.TRTEDT,Algorithm to derive ADSL.TRTEDT,Computation,"The date of final dose (from the CRF) is EX.EXENDTC on the subject's last EX record. If the date of final dose is missing for the subject and the subject discontinued after visit 3, use the date of discontinuation as the date of last dose. Convert the date to a SAS date.",,,,
MT.ADSL.TRTSDT,Algorithm to derive ADSL.TRTSDT,Computation,"SV.SVSTDTC when SV.VISITNUM=3, converted to SAS date",,,,
MT.ADSL.VISIT1DT,Algorithm to derive ADSL.VISIT1DT,Computation,"SV.SVSTDTC when SV.VISITNUM=1, converted to SAS date",,,,
MT.ADSL.VISNUMEN,Algorithm to derive ADSL.VISNUMEN,Computation,"if DS.VISITNUM=13 where DSTERM='PROTCOL COMPLETED' then VISNUMEN=12, otherwise VISNUMEN=DS.VISITNUM where DSTERM='PROTCOL COMPLETED'",,,,
MT.ADSL.WEIGHTBL,Algorithm to derive ADSL.WEIGHTBL,Computation,VSSTRESN when VS.VSTESTCD='WEIGHT' and VS.VISITNUM=3,,,,
MT.ADTTE.ADT,Algorithm to derive ADTTE.ADT,Computation,if ADAE.ASTDT is not missing and occurred after TRTSDT then ADAE.ASTDT else convert ADSL.RFENDTC to a SAS numeric date,,,,
MT.ADTTE.AVAL,Algorithm to derive ADTTE.AVAL,Computation,ADT-STARTDT+1,,,,
MT.ADTTE.CNSR,Algorithm to derive ADTTE.CNSR,Computation,"if ADAE.TRTEMFL =""Y"" then CNSR=0, else CNSR=1",,,,
MT.ADTTE.EVNTDESC,Algorithm to derive ADTTE.EVNTDESC,Computation,"if ADTTE.CNSR = 0 then ""Dematologic Event Occured"", else if ADTTE.CNSR =1 then ""Study Completion Date""",,,,
MT.ADTTE.SRCDOM,Algorithm to derive ADTTE.SRCDOM,Computation,The Source domain referred to in order to populate ADT (either ADAE or ADSL),,,,
MT.ADTTE.SRCSEQ,Algorithm to derive ADTTE.SRCSEQ,Computation,"The value of ADAE.AESEQ if SRCDOM=ADAE, otherwise null.",,,,
MT.ADTTE.SRCVAR,Algorithm to derive ADTTE.SRCVAR,Computation,The Source variable referred to in order to populate ADT (either ASTDT or RFENDT),,,,
MT.ADVS.ADT,Algorithm to derive ADVS.ADT,Computation,the date part of VS.VSDTC converted to a SAS date,,,,
MT.ADVS.ANL01FL,Algorithm to derive ADVS.ANL01FL,Computation,"ANL01FL=""Y"" if the value is to be included in a per visit analysis. ANL01FL is missing for values from SDTM screening visits, unscheduled visits, and event related visits, e.g. ""AMBUL ECG REMOVAL""",,,,
MT.ADVS.AVISIT,Algorithm to derive ADVS.AVISIT,Computation,"Derived from VS.VISIT for values to be included in a per visit analysis. AVISIT is missing for values from SDTM screening visits, unscheduled visits, and event related visits, e.g. ""AMBUL ECG REMOVAL"", which are not included in a per visit analysis.",,,,
MT.ADVS.BASE,Algorithm to derive ADVS.BASE,Computation,"VS.VSSTRESN where VSBLFL=""Y""",,,,
MT.ADY,Algorithm to derive ADY,Computation,"ADY = ADT - TRTSDT + 1, if ADT>=TRTSDT. ADY = ADT - TRTSDT, if ADT<TRTSDT.",,,,
MT.ALBTRVAL,Algorithm to derive ALBTRVAL,Computation,Maximum of [LBSTRESN-(1.5*ULN)] and [(.5*LLN) - LBSTRESN],,,,
MT.AVISITN,Algorithm to derive AVISITN,Computation,Using window method in SAP Page 10 to determine AVISITN value based on ADY.,,,,
MT.BNRIND,Algorithm to derive BNRIND,Computation,ADLBC.ANRIND when ADLBC.ABLFL=Y,,,,
MT.CHG,Algorithm to derive CHG,Computation,"AVAL - BASE, for post baseline records.",,,,
MT.DTYPE,Algorithm to derive DTYPE,Computation,Value: LOCF denotes that the LOCF imputation method was used to impute the value for the given parameter and analysis visit.,,,,
MT.PCHG,Algorithm to derive PCHG,Computation,"100* (CHG/BASE), for post baseline records.",,,,
MT.SHIFT1,Algorithm to derive SHIFT1,Computation,"Set to ""High to Normal"" if base=1 and aval=0. Set to ""Normal to Normal"" if base=0 and aval=0. Set to ""Normal to High"" if base=0 and aval=1.",,,,
