OID,Order,Dataset,Variable,Label,Data Type,Length,Significant Digits,Format,KeySequence,Mandatory,CodeList,Valuelist,Origin Type,Origin Source,Pages,Method,Predecessor,Role,Comment,IsNonStandard,HasNoData
IT.ADSL.STUDYID,1,ADSL,STUDYID,Study Identifier,text,12,,,,No,,,Predecessor,,,,DM.STUDYID,,,,
IT.ADSL.USUBJID,2,ADSL,USUBJID,Unique Subject Identifier,text,11,,,1,No,,,Predecessor,,,,DM.USUBJID,,,,
IT.ADSL.SUBJID,3,ADSL,SUBJID,Subject Identifier for the Study,text,4,,,,No,,,Predecessor,,,,DM.SUBJID,,,,
IT.ADSL.SITEID,4,ADSL,SITEID,Study Site Identifier,text,3,,,,No,,,Predecessor,,,,DM.SITEID,,,,
IT.ADSL.SITEGR1,5,ADSL,SITEGR1,Pooled Site Group 1,text,3,,,,No,,,Derived,Sponsor,,MT.ADSL.SITEGR1,,,,,
IT.ADSL.ARM,6,ADSL,ARM,Description of Planned Arm,text,20,,,,No,CL.ARM,,Predecessor,,,,DM.ARM,,,,
IT.ADSL.TRT01P,7,ADSL,TRT01P,Planned Treatment for Period 01,text,20,,,,No,CL.ARM,,Predecessor,,,,DM.ARM,,,,
IT.ADSL.TRT01PN,8,ADSL,TRT01PN,Planned Treatment for Period 01 (N),integer,8,,,,No,CL.ARMN,,Derived,Sponsor,,MT.ADSL.TRT01PN,,,,,
IT.ADSL.TRT01A,9,ADSL,TRT01A,Actual Treatment for Period 01,text,20,,,,No,CL.ARM,,Derived,Sponsor,,MT.ADSL.TRT01A,,,,,
IT.ADSL.TRT01AN,10,ADSL,TRT01AN,Actual Treatment for Period 01 (N),integer,8,,,,No,CL.ARMN,,Derived,Sponsor,,MT.ADSL.TRT01AN,,,,,
IT.ADSL.TRTSDT,11,ADSL,TRTSDT,Date of First Exposure to Treatment,integer,8,,DATE9.,,No,,,Derived,Sponsor,,MT.ADSL.TRTSDT,,,,,
IT.ADSL.TRTEDT,12,ADSL,TRTEDT,Date of Last Exposure to Treatment,integer,8,,DATE9.,,No,,,Derived,Sponsor,,MT.ADSL.TRTEDT,,,,,
IT.ADSL.TRTDURD,13,ADSL,TRTDURD,Total Treatment Duration (Days),integer,8,,,,No,,,Derived,Sponsor,,MT.ADSL.TRTDUR,,,,,
IT.ADSL.AVGDD,14,ADSL,AVGDD,Avg Daily Dose (as planned),float,8,1,,,No,,,Derived,Sponsor,,MT.ADSL.AVGDD,,,,,
IT.ADSL.CUMDOSE,15,ADSL,CUMDOSE,Cumulative Dose (as planned),float,8,1,,,No,,,Derived,Sponsor,,MT.ADSL.CUMDOSE,,,,,
IT.ADSL.AGE,16,ADSL,AGE,Age,integer,8,,,,No,,,Predecessor,,,,DM.AGE,,,,
IT.ADSL.AGEGR1,17,ADSL,AGEGR1,Pooled Age Group 1,text,5,,,,No,CL.AGEGR1,,Derived,Sponsor,,MT.ADSL.AGEGR1,,,,,
IT.ADSL.AGEGR1N,18,ADSL,AGEGR1N,Pooled Age Group 1 (N),integer,8,,,,No,CL.AGEGR1N,,Derived,Sponsor,,MT.ADSL.AGEGR1N,,,,,
IT.ADSL.AGEU,19,ADSL,AGEU,Age Units,text,5,,,,No,CL.AGEU,,Predecessor,,,,DM.AGEU,,,,
IT.ADSL.RACE,20,ADSL,RACE,Race,text,32,,,,No,CL.RACE,,Predecessor,,,,DM.RACE,,,,
IT.ADSL.RACEN,21,ADSL,RACEN,Race (N),integer,8,,,,No,CL.RACEN,,Derived,Sponsor,,MT.ADSL.RACEN,,,,,
IT.ADSL.SEX,22,ADSL,SEX,Sex,text,1,,,,No,CL.SEX,,Predecessor,,,,DM.SEX,,,,
IT.ADSL.ETHNIC,23,ADSL,ETHNIC,Ethnicity,text,22,,,,No,CL.ETHNIC,,Predecessor,,,,DM.ETHNIC,,,,
IT.ADSL.SAFFL,24,ADSL,SAFFL,Safety Population Flag,text,1,,,,No,CL.YN,,Derived,Sponsor,,MT.ADSL.SAFFL,,,,,
IT.ADSL.ITTFL,25,ADSL,ITTFL,Intent-To-Treat Population Flag,text,1,,,,No,CL.YN,,Derived,Sponsor,,MT.ADSL.ITTFL,,,,,
IT.ADSL.EFFFL,26,ADSL,EFFFL,Efficacy Population Flag,text,1,,,,No,CL.YN,,Derived,Sponsor,,MT.ADSL.EFFFL,,,,,
IT.ADSL.COMP8FL,27,ADSL,COMP8FL,Completers of Week 8 Population Flag,text,1,,,,No,CL.YN,,Derived,Sponsor,,MT.ADSL.COMP8FL,,,,,
IT.ADSL.COMP16FL,28,ADSL,COMP16FL,Completers of Week 16 Population Flag,text,1,,,,No,CL.YN,,Derived,Sponsor,,MT.ADSL.COMP16FL,,,,,
IT.ADSL.COMP24FL,29,ADSL,COMP24FL,Completers of Week 24 Population Flag,text,1,,,,No,CL.YN,,Derived,Sponsor,,MT.ADSL.COMP24FL,,,,,
IT.ADSL.DISCONFL,30,ADSL,DISCONFL,Did the Subject Discontinue the Study?,text,1,,,,No,CL.Y_BLANK,,Derived,Sponsor,,MT.ADSL.DISCONFL,,,,,
IT.ADSL.DSRAEFL,31,ADSL,DSRAEFL,Discontinued due to AE?,text,1,,,,No,CL.Y_BLANK,,Derived,Sponsor,,MT.ADSL.DSRAEFL,,,,,
IT.ADSL.DTHFL,32,ADSL,DTHFL,Subject Died?,text,1,,,,No,CL.Y_BLANK,,Predecessor,,,,DM.DTHFL,,,,
IT.ADSL.BMIBL,33,ADSL,BMIBL,Baseline BMI (kg/m^2),float,8,1,,,No,,,Derived,Sponsor,,MT.ADSL.BMIBL,,,,,
IT.ADSL.BMIBLGR1,34,ADSL,BMIBLGR1,Pooled Baseline BMI Group 1,text,6,,,,No,CL.BMICAT,,Derived,Sponsor,,MT.ADSL.BMIBLGR1,,,,,
IT.ADSL.HEIGHTBL,35,ADSL,HEIGHTBL,Baseline Height (cm),float,8,1,,,No,,,Derived,Sponsor,,MT.ADSL.HEIGHTBL,,,,,
IT.ADSL.WEIGHTBL,36,ADSL,WEIGHTBL,Baseline Weight (kg),float,8,1,,,No,,,Derived,Sponsor,,MT.ADSL.WEIGHTBL,,,,,
IT.ADSL.EDUCLVL,37,ADSL,EDUCLVL,Years of Education,integer,8,,,,No,,,Derived,Sponsor,,MT.ADSL.EDUCLVL,,,,,
IT.ADSL.DISONSDT,38,ADSL,DISONSDT,Date of Onset of Disease,integer,8,,DATE9.,,No,,,Derived,Sponsor,,MT.ADSL.DISONSDT,,,,,
IT.ADSL.DURDIS,39,ADSL,DURDIS,Duration of Disease (Months),float,8,1,,,No,,,Derived,Sponsor,,MT.ADSL.DURDIS,,,,,
IT.ADSL.DURDSGR1,40,ADSL,DURDSGR1,Pooled Disease Duration Group 1,text,4,,,,No,CL.DURDISC,,Derived,Sponsor,,MT.ADSL.DURDSGR1,,,,,
IT.ADSL.VISIT1DT,41,ADSL,VISIT1DT,Date of Visit 1,integer,8,,DATE9.,,No,,,Derived,Sponsor,,MT.ADSL.VISIT1DT,,,,,
IT.ADSL.RFSTDTC,42,ADSL,RFSTDTC,Subject Reference Start Date/Time,datetime,,,,,No,,,Predecessor,,,,DM.RFSTDTC,,,,
IT.ADSL.RFENDTC,43,ADSL,RFENDTC,Subject Reference End Date/Time,datetime,,,,,No,,,Predecessor,,,,DM.RFENDTC,,,,
IT.ADSL.VISNUMEN,44,ADSL,VISNUMEN,End of Trt Visit (Vis 12 or Early Term.),integer,8,,,,No,,,Derived,Sponsor,,MT.ADSL.VISNUMEN,,,,,
IT.ADSL.RFENDT,45,ADSL,RFENDT,Date of Discontinuation/Completion,integer,8,,DATE9.,,No,,,Derived,Sponsor,,MT.ADSL.RFENDT,,,,,
IT.ADSL.DCDECOD,46,ADSL,DCDECOD,Standardized Disposition Term,text,27,,,,No,CL.DISCCD,,Derived,Sponsor,,MT.ADSL.DCDECOD,,,,,
IT.ADSL.EOSSTT,47,ADSL,EOSSTT,End of Study Status,text,12,,,,No,,,Derived,Sponsor,,MT.ADSL.EOSSTT,,,,,
IT.ADSL.DCSREAS,48,ADSL,DCSREAS,Reason for Discontinuation from Study,text,18,,,,No,CL.DISCREAS,,Derived,Sponsor,,MT.ADSL.DCREASCD,,,,,
IT.ADSL.MMSETOT,49,ADSL,MMSETOT,MMSE Total,integer,8,,,,No,,,Derived,Sponsor,,MT.ADSL.MMSETOT,,,,,
IT.ADADAS.STUDYID,1,ADADAS,STUDYID,Study Identifier,text,12,,,,No,,,Predecessor,,,,ADSL.STUDYID,,,,
IT.ADADAS.SITEID,2,ADADAS,SITEID,Study Site Identifier,text,3,,,,No,,,Predecessor,,,,ADSL.SITEID,,,,
IT.ADADAS.SITEGR1,3,ADADAS,SITEGR1,Pooled Site Group 1,text,3,,,,No,,,Predecessor,,,,ADSL.SITEGR1,,,,
IT.ADADAS.USUBJID,4,ADADAS,USUBJID,Unique Subject Identifier,text,11,,,1,No,,,Predecessor,,,,ADSL.STUDYID,,,,
IT.ADADAS.TRTSDT,5,ADADAS,TRTSDT,Date of First Exposure to Treatment,integer,8,,DATE9.,,No,,,Predecessor,,,,ADSL.TRTSDT,,,,
IT.ADADAS.TRTEDT,6,ADADAS,TRTEDT,Date of Last Exposure to Treatment,integer,8,,DATE9.,,No,,,Predecessor,,,,ADSL.TRTEDT,,,,
IT.ADADAS.TRTP,7,ADADAS,TRTP,Planned Treatment,text,20,,,,No,CL.ARM,,Predecessor,,,,ADSL.TRT01P,,,,
IT.ADADAS.TRTPN,8,ADADAS,TRTPN,Planned Treatment (N),integer,8,,,,No,CL.ARMN,,Predecessor,,,,ADSL.TRT01PN,,,,
IT.ADADAS.AGE,9,ADADAS,AGE,Age,integer,8,,,,No,,,Predecessor,,,,ADSL.AGE,,,,
IT.ADADAS.AGEGR1,10,ADADAS,AGEGR1,Pooled Age Group 1,text,5,,,,No,CL.AGEGR1,,Predecessor,,,,ADSL.AGEGR1,,,,
IT.ADADAS.AGEGR1N,11,ADADAS,AGEGR1N,Pooled Age Group 1 (N),integer,8,,,,No,CL.AGEGR1N,,Predecessor,,,,ADSL.AGEGR1N,,,,
IT.ADADAS.RACE,12,ADADAS,RACE,Race,text,32,,,,No,CL.RACE,,Predecessor,,,,ADSL.RACE,,,,
IT.ADADAS.RACEN,13,ADADAS,RACEN,Race (N),integer,8,,,,No,CL.RACEN,,Predecessor,,,,ADSL.RACEN,,,,
IT.ADADAS.SEX,14,ADADAS,SEX,Sex,text,1,,,,No,CL.SEX,,Predecessor,,,,ADSL.SEX,,,,
IT.ADADAS.ITTFL,15,ADADAS,ITTFL,Intent-to-Treat Population Flag,text,1,,,,No,CL.YN,,Predecessor,,,,ADSL.ITTFL,,,,
IT.ADADAS.EFFFL,16,ADADAS,EFFFL,Efficacy Population Flag,text,1,,,,No,CL.YN,,Predecessor,,,,ADSL.EFFFL,,,,
IT.ADADAS.COMP24FL,17,ADADAS,COMP24FL,Completers of Week 24 Population Flag,text,1,,,,No,CL.YN,,Predecessor,,,,ADSL.COMP24FL,,,,
IT.ADADAS.AVISIT,18,ADADAS,AVISIT,Analysis Visit,text,16,,,3,No,CL.ADADAS.AVISIT,,Derived,Sponsor,,MT.ADADAS.AVISIT,,,,,
IT.ADADAS.AVISITN,19,ADADAS,AVISITN,Analysis Visit (N),integer,8,,,,No,CL.ADADAS.AVISITN,,Assigned,Sponsor,,,,,COM.AVISITN,,
IT.ADADAS.VISIT,20,ADADAS,VISIT,Visit Name,text,19,,,,No,CL.ADADAS.VISIT,,Predecessor,,,,QS.VISIT,,,,
IT.ADADAS.VISITNUM,21,ADADAS,VISITNUM,Visit Number,integer,8,,,,No,CL.ADADAS.VISITNUM,,Predecessor,,,,QS.VISITNUM,,,,
IT.ADADAS.ADY,22,ADADAS,ADY,Analysis Relative Day,integer,8,,,,No,,,Derived,Sponsor,,MT.ADY,,,,,
IT.ADADAS.ADT,23,ADADAS,ADT,Analysis Date,integer,8,,DATE9.,4,No,,,Derived,Sponsor,,MT.ADADAS.ADT,,,,,
IT.ADADAS.PARAM,24,ADADAS,PARAM,Parameter,text,100,,,,No,CL.PARAM_ADQSADAS,,Predecessor,,,,QS.QSTEST,,,,
IT.ADADAS.PARAMCD,25,ADADAS,PARAMCD,Parameter Code,text,8,,,2,No,CL.PARAMCD_ADQSADAS,,Predecessor,,,,QS.QSTESTCD,,,,
IT.ADADAS.PARAMN,26,ADADAS,PARAMN,Parameter (N),integer,8,,,,No,CL.PARAMN_ADQSADAS,,Assigned,Sponsor,,,,,COM.ADADAS.PARAMN,,
IT.ADADAS.AVAL,27,ADADAS,AVAL,Analysis Value,integer,8,,,,No,,VL.ADADAS.AVAL,,,,,,,COM.VLM,,
IT.ADADAS.BASE,28,ADADAS,BASE,Baseline Value,integer,8,,,,No,,,Derived,Sponsor,,MT.ADADAS.BASE,,,,,
IT.ADADAS.CHG,29,ADADAS,CHG,Change from Baseline,integer,8,,,,No,,,Derived,Sponsor,,MT.CHG,,,,,
IT.ADADAS.PCHG,30,ADADAS,PCHG,Percent Change from Baseline,integer,8,,,,No,,,Derived,Sponsor,,MT.PCHG,,,,,
IT.ADADAS.ABLFL,31,ADADAS,ABLFL,Baseline Record Flag,text,1,,,,No,CL.Y_BLANK,,Predecessor,,,,QS.QSBLFL,,,,
IT.ADADAS.ANL01FL,32,ADADAS,ANL01FL,Analysis Record Flag 01,text,1,,,,No,CL.Y_BLANK,,Derived,Sponsor,,MT.ADADAS.ANL01FL,,,,,
IT.ADADAS.DTYPE,33,ADADAS,DTYPE,Derivation Type,text,7,,,,No,CL.DTYPE,,Derived,Sponsor,,MT.DTYPE,,,,,
IT.ADADAS.AWRANGE,34,ADADAS,AWRANGE,Analysis Window Valid Relative Range,text,9,,,,No,,,Derived,Sponsor,,MT.ADADAS.AWRANGE,,,,,
IT.ADADAS.AWTARGET,35,ADADAS,AWTARGET,Analysis Window Target,integer,8,,,,No,,,Derived,Sponsor,,MT.ADADAS.AWTARGET,,,,,
IT.ADADAS.AWTDIFF,36,ADADAS,AWTDIFF,Analysis Window Diff from Target,integer,8,,,,No,,,Derived,Sponsor,,MT.ADADAS.AWTDIFF,,,,,
IT.ADADAS.AWLO,37,ADADAS,AWLO,Analysis Window Beginning Timepoint,integer,8,,,,No,,,Derived,Sponsor,,MT.ADADAS.AWLO,,,,,
IT.ADADAS.AWHI,38,ADADAS,AWHI,Analysis Window Ending Timepoint,integer,8,,,,No,,,Derived,Sponsor,,MT.ADADAS.AWHI,,,,,
IT.ADADAS.AWU,39,ADADAS,AWU,Analysis Window Unit,text,4,,,,No,CL.AWU,,Derived,Sponsor,,MT.ADADAS.AWU,,,,,
IT.ADADAS.QSSEQ,40,ADADAS,QSSEQ,Sequence Number,integer,8,,,,No,,,Predecessor,,,,QS.QSSEQ,,,,
IT.ADCIBC.STUDYID,1,ADCIBC,STUDYID,Study Identifier,text,12,,,,No,,,Predecessor,,,,ADSL.STUDYID,,,,
IT.ADCIBC.SITEID,2,ADCIBC,SITEID,Study Site Identifier,text,3,,,,No,,,Predecessor,,,,ADSL.SITEID,,,,
IT.ADCIBC.SITEGR1,3,ADCIBC,SITEGR1,Pooled Site Group 1,text,3,,,,No,,,Predecessor,,,,ADSL.SITEGR1,,,,
IT.ADCIBC.USUBJID,4,ADCIBC,USUBJID,Unique Subject Identifier,text,11,,,1,No,,,Predecessor,,,,QS.USUBJID,,,,
IT.ADCIBC.TRTSDT,5,ADCIBC,TRTSDT,Date of First Exposure to Treatment,integer,8,,DATE9.,,No,,,Predecessor,,,,ADSL.TRTSDT,,,,
IT.ADCIBC.TRTEDT,6,ADCIBC,TRTEDT,Date of Last Exposure to Treatment,integer,8,,DATE9.,,No,,,Predecessor,,,,ADSL.TRTEDT,,,,
IT.ADCIBC.TRTP,7,ADCIBC,TRTP,Planned Treatment,text,20,,,,No,CL.ARM,,Predecessor,,,,ADSL.TRT01P,,,,
IT.ADCIBC.TRTPN,8,ADCIBC,TRTPN,Planned Treatment (N),integer,8,,,,No,CL.ARMN,,Predecessor,,,,ADSL.TRT01PN,,,,
IT.ADCIBC.AGE,9,ADCIBC,AGE,Age,integer,8,,,,No,,,Predecessor,,,,ADSL.AGE,,,,
IT.ADCIBC.AGEGR1,10,ADCIBC,AGEGR1,Pooled Age Group 1,text,5,,,,No,CL.AGEGR1,,Predecessor,,,,ADSL.AGEGR1,,,,
IT.ADCIBC.AGEGR1N,11,ADCIBC,AGEGR1N,Pooled Age Group 1 (N),integer,8,,,,No,CL.AGEGR1N,,Predecessor,,,,ADSL.AGEGR1N,,,,
IT.ADCIBC.RACE,12,ADCIBC,RACE,Race,text,32,,,,No,CL.RACE,,Predecessor,,,,ADSL.RACE,,,,
IT.ADCIBC.RACEN,13,ADCIBC,RACEN,Race (N),integer,8,,,,No,CL.RACEN,,Predecessor,,,,ADSL.RACEN,,,,
IT.ADCIBC.SEX,14,ADCIBC,SEX,Sex,text,1,,,,No,CL.SEX,,Predecessor,,,,ADSL.SEX,,,,
IT.ADCIBC.ITTFL,15,ADCIBC,ITTFL,Intent-to-Treat Population Flag,text,1,,,,No,CL.YN,,Predecessor,,,,ADSL.ITTFL,,,,
IT.ADCIBC.EFFFL,16,ADCIBC,EFFFL,Efficacy Population Flag,text,1,,,,No,CL.YN,,Predecessor,,,,ADSL.EFFFL,,,,
IT.ADCIBC.COMP24FL,17,ADCIBC,COMP24FL,Completers of Week 24 Population Flag,text,1,,,,No,CL.YN,,Predecessor,,,,ADSL.COMP24FL,,,,
IT.ADCIBC.AVISIT,18,ADCIBC,AVISIT,Analysis Visit,text,16,,,3,No,CL.ADCIBC.AVISIT,,Derived,Sponsor,,MT.ADCIBC.AVISIT,,,,,
IT.ADCIBC.AVISITN,19,ADCIBC,AVISITN,Analysis Visit (N),integer,8,,,,No,CL.ADCIBC.AVISITN,,Derived,Sponsor,,MT.AVISITN,,,,,
IT.ADCIBC.VISIT,20,ADCIBC,VISIT,Visit Name,text,19,,,,No,CL.ADCIBC.VISIT,,Predecessor,,,,QS.VISIT,,,,
IT.ADCIBC.VISITNUM,21,ADCIBC,VISITNUM,Visit Number,integer,8,,,,No,CL.ADCIBC.VISITNUM,,Predecessor,,,,QS.VISITNUM,,,,
IT.ADCIBC.ADY,22,ADCIBC,ADY,Analysis Relative Day,integer,8,,,,No,,,Derived,Sponsor,,MT.ADY,,,,,
IT.ADCIBC.ADT,23,ADCIBC,ADT,Analysis Date,integer,8,,DATE9.,4,No,,,Derived,Sponsor,,MT.ADCIBC.ADT,,,,,
IT.ADCIBC.PARAMCD,24,ADCIBC,PARAMCD,Parameter Code,text,8,,,2,No,CL.PARAMCD_ADQSCIBC,,Assigned,Sponsor,,,,,COM.ADCIBC.PARAMCD,,
IT.ADCIBC.PARAM,25,ADCIBC,PARAM,Parameter,text,100,,,,No,CL.PARAM_ADQSCIBC,,Assigned,Sponsor,,,,,COM.ADCIBC.PARAM,,
IT.ADCIBC.PARAMN,26,ADCIBC,PARAMN,Parameter (N),integer,8,,,,No,CL.PARAMN_ADQSCIBC,,Assigned,Sponsor,,,,,COM.ADCIBC.PARAMN,,
IT.ADCIBC.AVAL,27,ADCIBC,AVAL,Analysis Value,integer,8,,,,No,,VL.ADCIBC.AVAL,,,,,,,COM.VLM,,
IT.ADCIBC.ANL01FL,28,ADCIBC,ANL01FL,Analysis Flag 01,text,1,,,,No,CL.Y_BLANK,,Derived,Sponsor,,MT.ADCIBC.ANL01FL,,,,,
IT.ADCIBC.DTYPE,29,ADCIBC,DTYPE,Derivation Type,text,7,,,,No,CL.DTYPE,,Derived,Sponsor,,MT.DTYPE,,,,,
IT.ADCIBC.AWRANGE,30,ADCIBC,AWRANGE,Analysis Window Valid Relative Range,text,9,,,,No,,,Derived,Sponsor,,MT.ADCIBC.AWRANGE,,,,,
IT.ADCIBC.AWTARGET,31,ADCIBC,AWTARGET,Analysis Window Target,integer,8,,,,No,,,Derived,Sponsor,,MT.ADCIBC.AWTARGET,,,,,
IT.ADCIBC.AWTDIFF,32,ADCIBC,AWTDIFF,Analysis Window Diff from Target,integer,8,,,,No,,,Derived,Sponsor,,MT.ADCIBC.AWTDIFF,,,,,
IT.ADCIBC.AWLO,33,ADCIBC,AWLO,Analysis Window Beginning Timepoint,integer,8,,,,No,,,Derived,Sponsor,,MT.ADCIBC.AWLO,,,,,
IT.ADCIBC.AWHI,34,ADCIBC,AWHI,Analysis Window Ending Timepoint,integer,8,,,,No,,,Derived,Sponsor,,MT.ADCIBC.AWHI,,,,,
IT.ADCIBC.AWU,35,ADCIBC,AWU,Analysis Window Unit,text,4,,,,No,CL.AWU,,Derived,Sponsor,,MT.ADCIBC.AWU,,,,,
IT.ADCIBC.QSSEQ,36,ADCIBC,QSSEQ,Sequence Number,integer,8,,,,No,,,Predecessor,,,,QS.QSSEQ,,,,
IT.ADLBC.STUDYID,1,ADLBC,STUDYID,Study Identifier,text,12,,,,No,,,Predecessor,,,,ADSL.STUDYID,,,,
IT.ADLBC.SUBJID,2,ADLBC,SUBJID,Subject Identifier for the Study,text,4,,,,No,,,Predecessor,,,,ADSL.SUBJID,,,,
IT.ADLBC.USUBJID,3,ADLBC,USUBJID,Unique Subject Identifier,text,11,,,1,No,,,Predecessor,,,,LB.USUBJID,,,,
IT.ADLBC.TRTP,4,ADLBC,TRTP,Planned Treatment,text,20,,,,No,CL.ARM,,Predecessor,,,,ADSL.TRT01P,,,,
IT.ADLBC.TRTPN,5,ADLBC,TRTPN,Planned Treatment (N),integer,8,,,,No,CL.ARMN,,Predecessor,,,,ADSL.TRT01PN,,,,
IT.ADLBC.TRTA,6,ADLBC,TRTA,Actual Treatment,text,20,,,,No,CL.ARM,,Predecessor,,,,ADSL.TRT01A,,,,
IT.ADLBC.TRTAN,7,ADLBC,TRTAN,Actual Treatment (N),integer,8,,,,No,CL.ARMN,,Predecessor,,,,ADSL.TRT01AN,,,,
IT.ADLBC.TRTSDT,8,ADLBC,TRTSDT,Date of First Exposure to Treatment,integer,8,,DATE9.,,No,,,Predecessor,,,,ADSL.TRTSDT,,,,
IT.ADLBC.TRTEDT,9,ADLBC,TRTEDT,Date of Last Exposure to Treatment,integer,8,,DATE9.,,No,,,Predecessor,,,,ADSL.TRTEDT,,,,
IT.ADLBC.AGE,10,ADLBC,AGE,Age,integer,8,,,,No,,,Predecessor,,,,ADSL.AGE,,,,
IT.ADLBC.AGEGR1,11,ADLBC,AGEGR1,Pooled Age Group 1,text,5,,,,No,CL.AGEGR1,,Predecessor,,,,ADSL.AGEGR1,,,,
IT.ADLBC.AGEGR1N,12,ADLBC,AGEGR1N,Pooled Age Group 1 (N),integer,8,,,,No,CL.AGEGR1N,,Predecessor,,,,ADSL.AGEGR1N,,,,
IT.ADLBC.RACE,13,ADLBC,RACE,Race,text,32,,,,No,CL.RACE,,Predecessor,,,,ADSL.RACE,,,,
IT.ADLBC.RACEN,14,ADLBC,RACEN,Race (N),integer,8,,,,No,CL.RACEN,,Predecessor,,,,ADSL.RACEN,,,,
IT.ADLBC.SEX,15,ADLBC,SEX,Sex,text,1,,,,No,CL.SEX,,Predecessor,,,,ADSL.SEX,,,,
IT.ADLBC.COMP24FL,16,ADLBC,COMP24FL,Completers of Week 24 Population Flag,text,1,,,,No,CL.YN,,Predecessor,,,,ADSL.COMP24FL,,,,
IT.ADLBC.DSRAEFL,17,ADLBC,DSRAEFL,Discontinued due to AE?,text,1,,,,No,CL.YN,,Predecessor,,,,ADSL.DSRAEFL,,,,
IT.ADLBC.SAFFL,18,ADLBC,SAFFL,Safety Population Flag,text,1,,,,No,CL.YN,,Predecessor,,,,ADSL.SAFFL,,,,
IT.ADLBC.AVISIT,19,ADLBC,AVISIT,Analysis Visit,text,16,,,3,No,CL.ADLBC.AVISIT,,Derived,Sponsor,,MT.ADLBC.AVISIT,,,,,
IT.ADLBC.AVISITN,20,ADLBC,AVISITN,Analysis Visit (N),integer,8,,,,No,CL.ADLBC.AVISITN,,Assigned,Sponsor,,,,,COM.AVISITN,,
IT.ADLBC.ADY,21,ADLBC,ADY,Analysis Relative Day,integer,8,,,,No,,,Predecessor,,,,LB.LBDY,,,,
IT.ADLBC.ADT,22,ADLBC,ADT,Analysis Date,integer,8,,DATE9.,,No,,,Derived,Sponsor,,MT.ADLBC.ADT,,,,,
IT.ADLBC.VISIT,23,ADLBC,VISIT,Visit Name,text,19,,,,No,CL.ADLBC.VISIT,,Predecessor,,,,LB.VISIT,,,,
IT.ADLBC.VISITNUM,24,ADLBC,VISITNUM,Visit Number,float,8,1,,,No,CL.ADLBC.VISITNUM,,Predecessor,,,,LB.VISITNUM,,,,
IT.ADLBC.PARAM,25,ADLBC,PARAM,Parameter,text,100,,,,No,CL.PARAM_ADLBC,,Derived,Sponsor,,MT.ADLBC.PARAM,,,,,
IT.ADLBC.PARAMCD,26,ADLBC,PARAMCD,Parameter Code,text,8,,,2,No,CL.PARAMCD_ADLBC,,Derived,Sponsor,,MT.ADLBC.PARAMCD,,,,,
IT.ADLBC.PARAMN,27,ADLBC,PARAMN,Parameter (N),integer,8,,,,No,CL.PARAMN_ADLBC,,Assigned,Sponsor,,,,,COM.PARAMN,,
IT.ADLBC.PARCAT1,28,ADLBC,PARCAT1,Parameter Category 1,text,5,,,,No,CL.ADLBCAT,,Assigned,Sponsor,,,,,COM.ADLBC.PARCAT1,,
IT.ADLBC.AVAL,29,ADLBC,AVAL,Analysis Value,float,8,5,,,No,,VL.ADLBC.AVAL,,,,,,,COM.VLM,,
IT.ADLBC.BASE,30,ADLBC,BASE,Baseline Value,float,8,5,,,No,,,Derived,Sponsor,,MT.ADLBC.BASE,,,,,
IT.ADLBC.CHG,31,ADLBC,CHG,Change from Baseline,float,8,5,,,No,,,Derived,Sponsor,,MT.CHG,,,,,
IT.ADLBC.A1LO,32,ADLBC,A1LO,Analysis Range 1 Lower Limit,float,8,5,,,No,,,Predecessor,,,,LB.LBSTNRLO,,,,
IT.ADLBC.A1HI,33,ADLBC,A1HI,Analysis Range 1 Upper Limit,float,8,5,,,No,,,Predecessor,,,,LB.LBSTNRHI,,,,
IT.ADLBC.R2A1LO,34,ADLBC,R2A1LO,Ratio to Analysis Range 1 Lower Limit,float,8,1,,,No,,,Derived,Sponsor,,MT.ADLBC.R2A1LO,,,,,
IT.ADLBC.R2A1HI,35,ADLBC,R2A1HI,Ratio to Analysis Range 1 Upper Limit,float,8,1,,,No,,,Derived,Sponsor,,MT.ADLBC.R2A1HI,,,,,
IT.ADLBC.BR2A1LO,36,ADLBC,BR2A1LO,Base Ratio to Analysis Range 1 Lower Lim,float,8,1,,,No,,,Derived,Sponsor,,MT.ADLBC.BR2A1LO,,,,,
IT.ADLBC.BR2A1HI,37,ADLBC,BR2A1HI,Base Ratio to Analysis Range 1 Upper Lim,float,8,1,,,No,,,Derived,Sponsor,,MT.ADLBC.BR2A1HI,,,,,
IT.ADLBC.ANL01FL,38,ADLBC,ANL01FL,Analysis Flag 01,text,1,,,,No,CL.Y_BLANK,,Derived,Sponsor,,MT.ADLBC.ANL01FL,,,,,
IT.ADLBC.ALBTRVAL,39,ADLBC,ALBTRVAL,Amount Threshold Range,float,8,3,,,No,,,Derived,Sponsor,,MT.ALBTRVAL,,,,,
IT.ADLBC.ANRIND,40,ADLBC,ANRIND,Analysis Reference Range Indicator,text,1,,,,No,CL.LNH,,Derived,Sponsor,,MT.ADLBC.ANRIND,,,,,
IT.ADLBC.BNRIND,41,ADLBC,BNRIND,Baseline Reference Range Indicator,text,1,,,,No,CL.LNH,,Derived,Sponsor,,MT.BNRIND,,,,,
IT.ADLBC.ABLFL,42,ADLBC,ABLFL,Baseline Record Flag,text,1,,,,No,CL.Y_BLANK,,Derived,Sponsor,,MT.ABLFL,,,,,
IT.ADLBC.AENTMTFL,43,ADLBC,AENTMTFL,Last value in treatment visit,text,1,,,,No,CL.Y_BLANK,,Derived,Sponsor,,MT.ADLBC.AENTMTFL,,,,,
IT.ADLBC.LBSEQ,44,ADLBC,LBSEQ,Sequence Number,integer,8,,,4,No,,,Predecessor,,,,LB.LBSEQ,,,,
IT.ADLBC.LBNRIND,45,ADLBC,LBNRIND,Reference Range Indicator,text,8,,,,No,CL.LBNRIND,,Predecessor,,,,LB.LBNRIND,,,,
IT.ADLBC.LBSTRESN,46,ADLBC,LBSTRESN,Numeric Result/Finding in Standard Units,float,8,5,,,No,,,Predecessor,,,,LB.LBSTRESN,,,,
IT.ADLBCPV.STUDYID,1,ADLBCPV,STUDYID,Study Identifier,text,12,,,,No,,,Predecessor,,,,ADSL.STUDYID,,,,
IT.ADLBCPV.SUBJID,2,ADLBCPV,SUBJID,Subject Identifier for the Study,text,4,,,,No,,,Predecessor,,,,LB.SUBJID,,,,
IT.ADLBCPV.USUBJID,3,ADLBCPV,USUBJID,Unique Subject Identifier,text,11,,,1,No,,,Predecessor,,,,LB.USUBJID,,,,
IT.ADLBCPV.TRTP,4,ADLBCPV,TRTP,Planned Treatment,text,20,,,,No,CL.ARM,,Predecessor,,,,ADSL.TRT01P,,,,
IT.ADLBCPV.TRTPN,5,ADLBCPV,TRTPN,Planned Treatment (N),integer,8,,,,No,CL.ARMN,,Predecessor,,,,ADSL.TRT01PN,,,,
IT.ADLBCPV.TRTA,6,ADLBCPV,TRTA,Actual Treatment,text,20,,,,No,CL.ARM,,Predecessor,,,,ADSL.TRT01A,,,,
IT.ADLBCPV.TRTAN,7,ADLBCPV,TRTAN,Actual Treatment (N),integer,8,,,,No,CL.ARMN,,Predecessor,,,,ADSL.TRT01AN,,,,
IT.ADLBCPV.TRTSDT,8,ADLBCPV,TRTSDT,Date of First Exposure to Treatment,integer,8,,DATE9.,,No,,,Predecessor,,,,ADSL.TRTSDT,,,,
IT.ADLBCPV.TRTEDT,9,ADLBCPV,TRTEDT,Date of Last Exposure to Treatment,integer,8,,DATE9.,,No,,,Predecessor,,,,ADSL.TRTEDT,,,,
IT.ADLBCPV.AGE,10,ADLBCPV,AGE,Age,integer,8,,,,No,,,Predecessor,,,,ADSL.AGE,,,,
IT.ADLBCPV.AGEGR1,11,ADLBCPV,AGEGR1,Pooled Age Group 1,text,5,,,,No,CL.AGEGR1,,Predecessor,,,,ADSL.AGEGR1,,,,
IT.ADLBCPV.AGEGR1N,12,ADLBCPV,AGEGR1N,Pooled Age Group 1 (N),integer,8,,,,No,CL.AGEGR1N,,Predecessor,,,,ADSL.AGEGR1N,,,,
IT.ADLBCPV.RACE,13,ADLBCPV,RACE,Race,text,32,,,,No,CL.RACE,,Predecessor,,,,ADSL.RACE,,,,
IT.ADLBCPV.RACEN,14,ADLBCPV,RACEN,Race (N),integer,8,,,,No,CL.RACEN,,Predecessor,,,,ADSL.RACEN,,,,
IT.ADLBCPV.SEX,15,ADLBCPV,SEX,Sex,text,1,,,,No,CL.SEX,,Predecessor,,,,ADSL.SEX,,,,
IT.ADLBCPV.COMP24FL,16,ADLBCPV,COMP24FL,Completers of Week 24 Population Flag,text,1,,,,No,CL.YN,,Predecessor,,,,ADSL.COMP24FL,,,,
IT.ADLBCPV.DSRAEFL,17,ADLBCPV,DSRAEFL,Discontinued due to AE?,text,1,,,,No,CL.YN,,Predecessor,,,,ADSL.DSRAEFL,,,,
IT.ADLBCPV.SAFFL,18,ADLBCPV,SAFFL,Safety Population Flag,text,1,,,,No,CL.YN,,Predecessor,,,,ADSL.SAFFL,,,,
IT.ADLBCPV.AVISIT,19,ADLBCPV,AVISIT,Analysis Visit,text,16,,,3,No,CL.ADLBCPV.AVISIT,,Derived,Sponsor,,MT.ADLBCPV.AVISIT,,,,,
IT.ADLBCPV.AVISITN,20,ADLBCPV,AVISITN,Analysis Visit (N),integer,8,,,,No,CL.ADLBCPV.AVISITN,,Assigned,Sponsor,,,,,COM.AVISITN,,
IT.ADLBCPV.ADY,21,ADLBCPV,ADY,Analysis Relative Day,integer,8,,,,No,,,Predecessor,,,,LB.LBDY,,,,
IT.ADLBCPV.ADT,22,ADLBCPV,ADT,Analysis Date,integer,8,,DATE9.,,No,,,Derived,Sponsor,,MT.ADLBCPV.ADT,,,,,
IT.ADLBCPV.VISIT,23,ADLBCPV,VISIT,Visit Name,text,19,,,,No,CL.ADLBCPV.VISIT,,Predecessor,,,,LB.VISIT,,,,
IT.ADLBCPV.VISITNUM,24,ADLBCPV,VISITNUM,Visit Number,float,8,1,,,No,CL.ADLBCPV.VISITNUM,,Predecessor,,,,LB.VISITNUM,,,,
IT.ADLBCPV.PARAM,25,ADLBCPV,PARAM,Parameter,text,100,,,,No,CL.PARAM_ADLBCPV,,Derived,Sponsor,,MT.ADLBCPV.PARAM,,,,,
IT.ADLBCPV.PARAMCD,26,ADLBCPV,PARAMCD,Parameter Code,text,8,,,2,No,CL.PARAMCD_ADLBCPV,,Derived,Sponsor,,MT.ADLBCPV.PARAMCD,,,,,
IT.ADLBCPV.PARAMN,27,ADLBCPV,PARAMN,Parameter (N),integer,8,,,,No,CL.PARAMN_ADLBCPV,,Assigned,Sponsor,,,,,COM.PARAMN,,
IT.ADLBCPV.PARCAT1,28,ADLBCPV,PARCAT1,Parameter Category 1,text,5,,,,No,CL.ADLBCAT,,Assigned,Sponsor,,,,,COM.ADLBCPV.PARCAT1,,
IT.ADLBCPV.AVAL,29,ADLBCPV,AVAL,Analysis Value,float,8,5,,,No,,VL.ADLBCPV.AVAL,,,,,,,COM.VLM,,
IT.ADLBCPV.BASE,30,ADLBCPV,BASE,Baseline Value,float,8,5,,,No,,,Derived,Sponsor,,MT.ADLBCPV.BASE,,,,,
IT.ADLBCPV.CHG,31,ADLBCPV,CHG,Change from Baseline,float,8,5,,,No,,,Derived,Sponsor,,MT.CHG,,,,,
IT.ADLBCPV.A1LO,32,ADLBCPV,A1LO,Analysis Range 1 Lower Limit,float,8,5,,,No,,,Predecessor,,,,LB.LBSTNRLO,,,,
IT.ADLBCPV.A1HI,33,ADLBCPV,A1HI,Analysis Range 1 Upper Limit,float,8,5,,,No,,,Predecessor,,,,LB.LBSTNRHI,,,,
IT.ADLBCPV.R2A1LO,34,ADLBCPV,R2A1LO,Ratio to Analysis Range 1 Lower Limit,float,8,1,,,No,,,Derived,Sponsor,,MT.ADLBCPV.R2A1LO,,,,,
IT.ADLBCPV.R2A1HI,35,ADLBCPV,R2A1HI,Ratio to Analysis Range 1 Upper Limit,float,8,1,,,No,,,Derived,Sponsor,,MT.ADLBCPV.R2A1HI,,,,,
IT.ADLBCPV.BR2A1LO,36,ADLBCPV,BR2A1LO,Base Ratio to Analysis Range 1 Lower Lim,float,8,1,,,No,,,Derived,Sponsor,,MT.ADLBCPV.BR2A1LO,,,,,
IT.ADLBCPV.BR2A1HI,37,ADLBCPV,BR2A1HI,Base Ratio to Analysis Range 1 Upper Lim,float,8,1,,,No,,,Derived,Sponsor,,MT.ADLBCPV.BR2A1HI,,,,,
IT.ADLBCPV.ANL01FL,38,ADLBCPV,ANL01FL,Analysis Flag 01,text,1,,,,No,CL.Y_BLANK,,Derived,Sponsor,,MT.ADLBCPV.ANL01FL,,,,,
IT.ADLBCPV.ALBTRVAL,39,ADLBCPV,ALBTRVAL,Amount Threshold Range,float,8,3,,,No,,,Derived,Sponsor,,MT.ALBTRVAL,,,,,
IT.ADLBCPV.ANRIND,40,ADLBCPV,ANRIND,Analysis Reference Range Indicator,text,1,,,,No,CL.LNH,,Derived,Sponsor,,MT.ADLBCPV.ANRIND,,,,,
IT.ADLBCPV.BNRIND,41,ADLBCPV,BNRIND,Baseline Reference Range Indicator,text,1,,,,No,CL.LNH,,Derived,Sponsor,,MT.BNRIND,,,,,
IT.ADLBCPV.ABLFL,42,ADLBCPV,ABLFL,Baseline Record Flag,text,1,,,,No,CL.Y_BLANK,,Derived,Sponsor,,MT.ABLFL,,,,,
IT.ADLBCPV.AENTMTFL,43,ADLBCPV,AENTMTFL,Last value in treatment visit,text,1,,,,No,CL.Y_BLANK,,Derived,Sponsor,,MT.ADLBCPV.AENTMTFL,,,,,
IT.ADLBCPV.LBSEQ,44,ADLBCPV,LBSEQ,Sequence Number,integer,8,,,4,No,,,Predecessor,,,,LB.LBSEQ,,,,
IT.ADLBCPV.LBNRIND,45,ADLBCPV,LBNRIND,Reference Range Indicator,text,8,,,,No,CL.LBNRIND,,Predecessor,,,,LB.LBNRIND,,,,
IT.ADLBCPV.LBSTRESN,46,ADLBCPV,LBSTRESN,Numeric Result/Finding in Standard Units,float,8,5,,,No,,,Predecessor,,,,LB.LBSTRESN,,,,
IT.ADLBH.STUDYID,1,ADLBH,STUDYID,Study Identifier,text,12,,,,No,,,Predecessor,,,,ADSL.STUDYID,,,,
IT.ADLBH.SUBJID,2,ADLBH,SUBJID,Subject Identifier for the Study,text,4,,,,No,,,Predecessor,,,,ADSL.SUBJID,,,,
IT.ADLBH.USUBJID,3,ADLBH,USUBJID,Unique Subject Identifier,text,11,,,1,No,,,Predecessor,,,,LB.USUBJID,,,,
IT.ADLBH.TRTP,4,ADLBH,TRTP,Planned Treatment,text,20,,,,No,CL.ARM,,Predecessor,,,,ADSL.TRT01P,,,,
IT.ADLBH.TRTPN,5,ADLBH,TRTPN,Planned Treatment (N),integer,8,,,,No,CL.ARMN,,Predecessor,,,,ADSL.TRT01PN,,,,
IT.ADLBH.TRTA,6,ADLBH,TRTA,Actual Treatment,text,20,,,,No,CL.ARM,,Predecessor,,,,ADSL.TRT01A,,,,
IT.ADLBH.TRTAN,7,ADLBH,TRTAN,Actual Treatment (N),integer,8,,,,No,CL.ARMN,,Predecessor,,,,ADSL.TRT01AN,,,,
IT.ADLBH.TRTSDT,8,ADLBH,TRTSDT,Date of First Exposure to Treatment,integer,8,,DATE9.,,No,,,Predecessor,,,,ADSL.TRTSDT,,,,
IT.ADLBH.TRTEDT,9,ADLBH,TRTEDT,Date of Last Exposure to Treatment,integer,8,,DATE9.,,No,,,Predecessor,,,,ADSL.TRTEDT,,,,
IT.ADLBH.AGE,10,ADLBH,AGE,Age,integer,8,,,,No,,,Predecessor,,,,ADSL.AGE,,,,
IT.ADLBH.AGEGR1,11,ADLBH,AGEGR1,Pooled Age Group 1,text,5,,,,No,CL.AGEGR1,,Predecessor,,,,ADSL.AGEGR1,,,,
IT.ADLBH.AGEGR1N,12,ADLBH,AGEGR1N,Pooled Age Group 1 (N),integer,8,,,,No,CL.AGEGR1N,,Predecessor,,,,ADSL.AGEGR1N,,,,
IT.ADLBH.RACE,13,ADLBH,RACE,Race,text,32,,,,No,CL.RACE,,Predecessor,,,,ADSL.RACE,,,,
IT.ADLBH.RACEN,14,ADLBH,RACEN,Race (N),integer,8,,,,No,CL.RACEN,,Predecessor,,,,ADSL.RACEN,,,,
IT.ADLBH.SEX,15,ADLBH,SEX,Sex,text,1,,,,No,CL.SEX,,Predecessor,,,,ADSL.SEX,,,,
IT.ADLBH.COMP24FL,16,ADLBH,COMP24FL,Completers of Week 24 Population Flag,text,1,,,,No,CL.YN,,Predecessor,,,,ADSL.COMP24FL,,,,
IT.ADLBH.DSRAEFL,17,ADLBH,DSRAEFL,Discontinued due to AE?,text,1,,,,No,CL.YN,,Predecessor,,,,ADSL.DSRAEFL,,,,
IT.ADLBH.SAFFL,18,ADLBH,SAFFL,Safety Population Flag,text,1,,,,No,CL.YN,,Predecessor,,,,ADSL.SAFFL,,,,
IT.ADLBH.AVISIT,19,ADLBH,AVISIT,Analysis Visit,text,16,,,3,No,CL.ADLBH.AVISIT,,Derived,Sponsor,,MT.ADLBH.AVISIT,,,,,
IT.ADLBH.AVISITN,20,ADLBH,AVISITN,Analysis Visit (N),integer,8,,,,No,CL.ADLBH.AVISITN,,Assigned,Sponsor,,,,,COM.AVISITN,,
IT.ADLBH.ADY,21,ADLBH,ADY,Analysis Relative Day,integer,8,,,,No,,,Predecessor,,,,LB.LBDY,,,,
IT.ADLBH.ADT,22,ADLBH,ADT,Analysis Date,integer,8,,DATE9.,,No,,,Derived,Sponsor,,MT.ADLBH.ADT,,,,,
IT.ADLBH.VISIT,23,ADLBH,VISIT,Visit Name,text,19,,,,No,CL.ADLBH.VISIT,,Predecessor,,,,LB.VISIT,,,,
IT.ADLBH.VISITNUM,24,ADLBH,VISITNUM,Visit Number,float,8,1,,,No,CL.ADLBH.VISITNUM,,Predecessor,,,,LB.VISITNUM,,,,
IT.ADLBH.PARAM,25,ADLBH,PARAM,Parameter,text,100,,,,No,CL.PARAM_ADLBH,,Derived,Sponsor,,MT.ADLBH.PARAM,,,,,
IT.ADLBH.PARAMCD,26,ADLBH,PARAMCD,Parameter Code,text,8,,,2,No,CL.PARAMCD_ADLBH,,Derived,Sponsor,,MT.ADLBH.PARAMCD,,,,,
IT.ADLBH.PARAMN,27,ADLBH,PARAMN,Parameter (N),integer,8,,,,No,CL.PARAMN_ADLBH,,Assigned,Sponsor,,,,,COM.PARAMN,,
IT.ADLBH.PARCAT1,28,ADLBH,PARCAT1,Parameter Category 1,text,5,,,,No,CL.ADLBCAT,,Assigned,Sponsor,,,,,COM.ADLBH.PARCAT1,,
IT.ADLBH.AVAL,29,ADLBH,AVAL,Analysis Value,float,8,5,,,No,,VL.ADLBH.AVAL,,,,,,,COM.VLM,,
IT.ADLBH.BASE,30,ADLBH,BASE,Baseline Value,float,8,5,,,No,,,Derived,Sponsor,,MT.ADLBH.BASE,,,,,
IT.ADLBH.CHG,31,ADLBH,CHG,Change from Baseline,float,8,5,,,No,,,Derived,Sponsor,,MT.CHG,,,,,
IT.ADLBH.A1LO,32,ADLBH,A1LO,Analysis Range 1 Lower Limit,float,8,5,,,No,,,Predecessor,,,,LB.LBSTNRLO,,,,
IT.ADLBH.A1HI,33,ADLBH,A1HI,Analysis Range 1 Upper Limit,float,8,5,,,No,,,Predecessor,,,,LB.LBSTNRHI,,,,
IT.ADLBH.R2A1LO,34,ADLBH,R2A1LO,Ratio to Analysis Range 1 Lower Limit,float,8,1,,,No,,,Derived,Sponsor,,MT.ADLBH.R2A1LO,,,,,
IT.ADLBH.R2A1HI,35,ADLBH,R2A1HI,Ratio to Analysis Range 1 Upper Limit,float,8,1,,,No,,,Derived,Sponsor,,MT.ADLBH.R2A1HI,,,,,
IT.ADLBH.BR2A1LO,36,ADLBH,BR2A1LO,Base Ratio to Analysis Range 1 Lower Lim,float,8,1,,,No,,,Derived,Sponsor,,MT.ADLBH.BR2A1LO,,,,,
IT.ADLBH.BR2A1HI,37,ADLBH,BR2A1HI,Base Ratio to Analysis Range 1 Upper Lim,float,8,1,,,No,,,Derived,Sponsor,,MT.ADLBH.BR2A1HI,,,,,
IT.ADLBH.ANL01FL,38,ADLBH,ANL01FL,Analysis Flag 01,text,1,,,,No,CL.Y_BLANK,,Derived,Sponsor,,MT.ADLBH.ANL01FL,,,,,
IT.ADLBH.ALBTRVAL,39,ADLBH,ALBTRVAL,Amount Threshold Range,float,8,3,,,No,,,Derived,Sponsor,,MT.ALBTRVAL,,,,,
IT.ADLBH.ANRIND,40,ADLBH,ANRIND,Analysis Reference Range Indicator,text,1,,,,No,CL.LNH,,Derived,Sponsor,,MT.ADLBH.ANRIND,,,,,
IT.ADLBH.BNRIND,41,ADLBH,BNRIND,Baseline Reference Range Indicator,text,1,,,,No,CL.LNH,,Derived,Sponsor,,MT.BNRIND,,,,,
IT.ADLBH.ABLFL,42,ADLBH,ABLFL,Baseline Record Flag,text,1,,,,No,CL.Y_BLANK,,Derived,Sponsor,,MT.ABLFL,,,,,
IT.ADLBH.AENTMTFL,43,ADLBH,AENTMTFL,Last value in treatment visit,text,1,,,,No,CL.Y_BLANK,,Derived,Sponsor,,MT.ADLBH.AENTMTFL,,,,,
IT.ADLBH.LBSEQ,44,ADLBH,LBSEQ,Sequence Number,integer,8,,,4,No,,,Predecessor,,,,LB.LBSEQ,,,,
IT.ADLBH.LBNRIND,45,ADLBH,LBNRIND,Reference Range Indicator,text,8,,,,No,CL.LBNRIND,,Predecessor,,,,LB.LBNRIND,,,,
IT.ADLBH.LBSTRESN,46,ADLBH,LBSTRESN,Numeric Result/Finding in Standard Units,float,8,5,,,No,,,Predecessor,,,,LB.LBSTRESN,,,,
IT.ADLBHPV.STUDYID,1,ADLBHPV,STUDYID,Study Identifier,text,12,,,,No,,,Predecessor,,,,ADSL.STUDYID,,,,
IT.ADLBHPV.SUBJID,2,ADLBHPV,SUBJID,Subject Identifier for the Study,text,4,,,,No,,,Predecessor,,,,ADSL.SUBJID,,,,
IT.ADLBHPV.USUBJID,3,ADLBHPV,USUBJID,Unique Subject Identifier,text,11,,,1,No,,,Predecessor,,,,LB.USUBJID,,,,
IT.ADLBHPV.TRTP,4,ADLBHPV,TRTP,Planned Treatment,text,20,,,,No,CL.ARM,,Predecessor,,,,ADSL.TRT01P,,,,
IT.ADLBHPV.TRTPN,5,ADLBHPV,TRTPN,Planned Treatment (N),integer,8,,,,No,CL.ARMN,,Predecessor,,,,ADSL.TRT01PN,,,,
IT.ADLBHPV.TRTA,6,ADLBHPV,TRTA,Actual Treatment,text,20,,,,No,CL.ARM,,Predecessor,,,,ADSL.TRT01A,,,,
IT.ADLBHPV.TRTAN,7,ADLBHPV,TRTAN,Actual Treatment (N),integer,8,,,,No,CL.ARMN,,Predecessor,,,,ADSL.TRT01AN,,,,
IT.ADLBHPV.TRTSDT,8,ADLBHPV,TRTSDT,Date of First Exposure to Treatment,integer,8,,DATE9.,,No,,,Predecessor,,,,ADSL.TRTSDT,,,,
IT.ADLBHPV.TRTEDT,9,ADLBHPV,TRTEDT,Date of Last Exposure to Treatment,integer,8,,DATE9.,,No,,,Predecessor,,,,ADSL.TRTEDT,,,,
IT.ADLBHPV.AGE,10,ADLBHPV,AGE,Age,integer,8,,,,No,,,Predecessor,,,,ADSL.AGE,,,,
IT.ADLBHPV.AGEGR1,11,ADLBHPV,AGEGR1,Pooled Age Group 1,text,5,,,,No,CL.AGEGR1,,Predecessor,,,,ADSL.AGEGR1,,,,
IT.ADLBHPV.AGEGR1N,12,ADLBHPV,AGEGR1N,Pooled Age Group 1 (N),integer,8,,,,No,CL.AGEGR1N,,Predecessor,,,,ADSL.AGEGR1N,,,,
IT.ADLBHPV.RACE,13,ADLBHPV,RACE,Race,text,32,,,,No,CL.RACE,,Predecessor,,,,ADSL.RACE,,,,
IT.ADLBHPV.RACEN,14,ADLBHPV,RACEN,Race (N),integer,8,,,,No,CL.RACEN,,Predecessor,,,,ADSL.RACEN,,,,
IT.ADLBHPV.SEX,15,ADLBHPV,SEX,Sex,text,1,,,,No,CL.SEX,,Predecessor,,,,ADSL.SEX,,,,
IT.ADLBHPV.COMP24FL,16,ADLBHPV,COMP24FL,Completers of Week 24 Population Flag,text,1,,,,No,CL.YN,,Predecessor,,,,ADSL.COMP24FL,,,,
IT.ADLBHPV.DSRAEFL,17,ADLBHPV,DSRAEFL,Discontinued due to AE?,text,1,,,,No,CL.YN,,Predecessor,,,,ADSL.DSRAEFL,,,,
IT.ADLBHPV.SAFFL,18,ADLBHPV,SAFFL,Safety Population Flag,text,1,,,,No,CL.YN,,Predecessor,,,,ADSL.SAFFL,,,,
IT.ADLBHPV.AVISIT,19,ADLBHPV,AVISIT,Analysis Visit,text,16,,,3,No,CL.ADLBHPV.AVISIT,,Derived,Sponsor,,MT.ADLBHPV.AVISIT,,,,,
IT.ADLBHPV.AVISITN,20,ADLBHPV,AVISITN,Analysis Visit (N),integer,8,,,,No,CL.ADLBHPV.AVISITN,,Assigned,Sponsor,,,,,COM.AVISITN,,
IT.ADLBHPV.ADY,21,ADLBHPV,ADY,Analysis Relative Day,integer,8,,,,No,,,Predecessor,,,,LB.LBDY,,,,
IT.ADLBHPV.ADT,22,ADLBHPV,ADT,Analysis Date,integer,8,,DATE9.,,No,,,Derived,Sponsor,,MT.ADLBHPV.ADT,,,,,
IT.ADLBHPV.VISIT,23,ADLBHPV,VISIT,Visit Name,text,19,,,,No,CL.ADLBHPV.VISIT,,Predecessor,,,,LB.VISIT,,,,
IT.ADLBHPV.VISITNUM,24,ADLBHPV,VISITNUM,Visit Number,float,8,1,,,No,CL.ADLBHPV.VISITNUM,,Predecessor,,,,LB.VISITNUM,,,,
IT.ADLBHPV.PARAM,25,ADLBHPV,PARAM,Parameter,text,100,,,,No,CL.PARAM_ADLBHPV,,Derived,Sponsor,,MT.ADLBHPV.PARAM,,,,,
IT.ADLBHPV.PARAMCD,26,ADLBHPV,PARAMCD,Parameter Code,text,8,,,2,No,CL.PARAMCD_ADLBHPV,,Derived,Sponsor,,MT.ADLBHPV.PARAMCD,,,,,
IT.ADLBHPV.PARAMN,27,ADLBHPV,PARAMN,Parameter (N),integer,8,,,,No,CL.PARAMN_ADLBHPV,,Assigned,Sponsor,,,,,COM.ADLBHPV.PARAMN,,
IT.ADLBHPV.PARCAT1,28,ADLBHPV,PARCAT1,Parameter Category 1,text,5,,,,No,CL.ADLBCAT,,Assigned,Sponsor,,,,,COM.ADLBHPV.PARCAT1,,
IT.ADLBHPV.AVAL,29,ADLBHPV,AVAL,Analysis Value,float,8,5,,,No,,VL.ADLBHPV.AVAL,,,,,,,COM.VLM,,
IT.ADLBHPV.BASE,30,ADLBHPV,BASE,Baseline Value,float,8,5,,,No,,,Derived,Sponsor,,MT.ADLBHPV.BASE,,,,,
IT.ADLBHPV.CHG,31,ADLBHPV,CHG,Change from Baseline,float,8,5,,,No,,,Derived,Sponsor,,MT.CHG,,,,,
IT.ADLBHPV.A1LO,32,ADLBHPV,A1LO,Analysis Range 1 Lower Limit,float,8,5,,,No,,,Predecessor,,,,LB.LBSTNRLO,,,,
IT.ADLBHPV.A1HI,33,ADLBHPV,A1HI,Analysis Range 1 Upper Limit,float,8,5,,,No,,,Predecessor,,,,LB.LBSTNRLO,,,,
IT.ADLBHPV.R2A1LO,34,ADLBHPV,R2A1LO,Ratio to Analysis Range 1 Lower Limit,float,8,1,,,No,,,Derived,Sponsor,,MT.ADLBHPV.R2A1HI,,,,,
IT.ADLBHPV.R2A1HI,35,ADLBHPV,R2A1HI,Ratio to Analysis Range 1 Upper Limit,float,8,1,,,No,,,Derived,Sponsor,,MT.ADLBHPV.R2A1LO,,,,,
IT.ADLBHPV.BR2A1LO,36,ADLBHPV,BR2A1LO,Base Ratio to Analysis Range 1 Lower Lim,float,8,1,,,No,,,Derived,Sponsor,,MT.ADLBHPV.BR2A1LO,,,,,
IT.ADLBHPV.BR2A1HI,37,ADLBHPV,BR2A1HI,Base Ratio to Analysis Range 1 Upper Lim,float,8,1,,,No,,,Derived,Sponsor,,MT.ADLBHPV.BR2A1HI,,,,,
IT.ADLBHPV.ANL01FL,38,ADLBHPV,ANL01FL,Analysis Flag 01,text,1,,,,No,CL.Y_BLANK,,Derived,Sponsor,,MT.ADLBHPV.ANL01FL,,,,,
IT.ADLBHPV.ALBTRVAL,39,ADLBHPV,ALBTRVAL,Amount Threshold Range,float,8,3,,,No,,,Derived,Sponsor,,MT.ALBTRVAL,,,,,
IT.ADLBHPV.ANRIND,40,ADLBHPV,ANRIND,Analysis Reference Range Indicator,text,1,,,,No,CL.LNH,,Derived,Sponsor,,MT.ADLBHPV.ANRIND,,,,,
IT.ADLBHPV.BNRIND,41,ADLBHPV,BNRIND,Baseline Reference Range Indicator,text,1,,,,No,CL.LNH,,Derived,Sponsor,,MT.BNRIND,,,,,
IT.ADLBHPV.ABLFL,42,ADLBHPV,ABLFL,Baseline Record Flag,text,1,,,,No,CL.Y_BLANK,,Derived,Sponsor,,MT.ABLFL,,,,,
IT.ADLBHPV.AENTMTFL,43,ADLBHPV,AENTMTFL,Last value in treatment visit,text,1,,,,No,CL.Y_BLANK,,Derived,Sponsor,,MT.ADLBHPV.AENTMTFL,,,,,
IT.ADLBHPV.LBSEQ,44,ADLBHPV,LBSEQ,Sequence Number,integer,8,,,4,No,,,Predecessor,,,,LB.LBSEQ,,,,
IT.ADLBHPV.LBNRIND,45,ADLBHPV,LBNRIND,Reference Range Indicator,text,8,,,,No,CL.LBNRIND,,Predecessor,,,,LB.LBNRIND,,,,
IT.ADLBHPV.LBSTRESN,46,ADLBHPV,LBSTRESN,Numeric Result/Finding in Standard Units,float,8,5,,,No,,,Predecessor,,,,LB.LBSTRESN,,,,
IT.ADLBHY.STUDYID,1,ADLBHY,STUDYID,Study Identifier,text,12,,,,No,,,Predecessor,,,,ADSL.STUDYID,,,,
IT.ADLBHY.SUBJID,2,ADLBHY,SUBJID,Subject Identifier for the Study,text,4,,,,No,,,Predecessor,,,,ADSL.SUBJID,,,,
IT.ADLBHY.USUBJID,3,ADLBHY,USUBJID,Unique Subject Identifier,text,11,,,1,No,,,Predecessor,,,,LB.USUBJID,,,,
IT.ADLBHY.TRTP,4,ADLBHY,TRTP,Planned Treatment,text,20,,,,No,CL.ARM,,Predecessor,,,,ADSL.TRT01P,,,,
IT.ADLBHY.TRTPN,5,ADLBHY,TRTPN,Planned Treatment (N),integer,8,,,,No,CL.ARMN,,Predecessor,,,,ADSL.TRT01PN,,,,
IT.ADLBHY.TRTA,6,ADLBHY,TRTA,Actual Treatment,text,20,,,,No,CL.ARM,,Predecessor,,,,ADSL.TRT01A,,,,
IT.ADLBHY.TRTAN,7,ADLBHY,TRTAN,Actual Treatment (N),integer,8,,,,No,CL.ARMN,,Predecessor,,,,ADSL.TRT01AN,,,,
IT.ADLBHY.TRTSDT,8,ADLBHY,TRTSDT,Date of First Exposure to Treatment,integer,8,,DATE9.,,No,,,Predecessor,,,,ADSL.TRTSDT,,,,
IT.ADLBHY.TRTEDT,9,ADLBHY,TRTEDT,Date of Last Exposure to Treatment,integer,8,,DATE9.,,No,,,Predecessor,,,,ADSL.TRTEDT,,,,
IT.ADLBHY.AGE,10,ADLBHY,AGE,Age,integer,8,,,,No,,,Predecessor,,,,ADSL.AGE,,,,
IT.ADLBHY.AGEGR1,11,ADLBHY,AGEGR1,Pooled Age Group 1,text,5,,,,No,CL.AGEGR1,,Predecessor,,,,ADSL.AGEGR1,,,,
IT.ADLBHY.AGEGR1N,12,ADLBHY,AGEGR1N,Pooled Age Group 1 (N),integer,8,,,,No,CL.AGEGR1N,,Predecessor,,,,ADSL.AGEGR1N,,,,
IT.ADLBHY.RACE,13,ADLBHY,RACE,Race,text,32,,,,No,CL.RACE,,Predecessor,,,,ADSL.RACE,,,,
IT.ADLBHY.RACEN,14,ADLBHY,RACEN,Race (N),integer,8,,,,No,CL.RACEN,,Predecessor,,,,ADSL.RACEN,,,,
IT.ADLBHY.SEX,15,ADLBHY,SEX,Sex,text,1,,,,No,CL.SEX,,Predecessor,,,,ADSL.SEX,,,,
IT.ADLBHY.COMP24FL,16,ADLBHY,COMP24FL,Completers of Week 24 Population Flag,text,1,,,,No,CL.YN,,Predecessor,,,,ADSL.COMP24FL,,,,
IT.ADLBHY.DSRAEFL,17,ADLBHY,DSRAEFL,Discontinued due to AE?,text,1,,,,No,CL.YN,,Predecessor,,,,ADSL.DSRAEFL,,,,
IT.ADLBHY.SAFFL,18,ADLBHY,SAFFL,Safety Population Flag,text,1,,,,No,CL.YN,,Predecessor,,,,ADSL.SAFFL,,,,
IT.ADLBHY.AVISIT,19,ADLBHY,AVISIT,Analysis Visit,text,16,,,3,No,CL.ADLBHY.AVISIT,,Derived,Sponsor,,MT.ADLBHY.AVISIT,,,,,
IT.ADLBHY.AVISITN,20,ADLBHY,AVISITN,Analysis Visit (N),integer,8,,,,No,CL.ADLBHY.AVISITN,,Assigned,Sponsor,,,,,COM.AVISITN,,
IT.ADLBHY.ADY,21,ADLBHY,ADY,Analysis Relative Day,integer,8,,,,No,,,Predecessor,,,,LB.LBDY,,,,
IT.ADLBHY.ADT,22,ADLBHY,ADT,Analysis Date,integer,8,,DATE9.,,No,,,Derived,Sponsor,,MT.ADLBHY.ADT,,,,,
IT.ADLBHY.VISIT,23,ADLBHY,VISIT,Visit Name,text,19,,,,No,CL.ADLBHY.VISIT,,Predecessor,,,,LB.VISIT,,,,
IT.ADLBHY.VISITNUM,24,ADLBHY,VISITNUM,Visit Number,integer,8,,,,No,CL.ADLBHY.VISITNUM,,Predecessor,,,,LB.VISITNUM,,,,
IT.ADLBHY.PARAMTYP,25,ADLBHY,PARAMTYP,Parameter Type,text,7,,,,No,CL.PARAMTYP,,Assigned,Sponsor,,,,,COM.PARAMTYP,,
IT.ADLBHY.PARAM,26,ADLBHY,PARAM,Parameter,text,100,,,,No,CL.PARAM_ADLBHY,,Derived,Sponsor,,MT.ADLBHY.PARAM,,,,,
IT.ADLBHY.PARAMCD,27,ADLBHY,PARAMCD,Parameter Code,text,8,,,2,No,CL.PARAMCD_ADLBHY,,Assigned,Sponsor,,,,,COM.ADLBHY.PARAMCD,,
IT.ADLBHY.PARAMN,28,ADLBHY,PARAMN,Parameter (N),integer,8,,,,No,CL.PARAMN_ADLBHY,,Assigned,Sponsor,,,,,COM.PARAMN,,
IT.ADLBHY.PARCAT1,29,ADLBHY,PARCAT1,Parameter Category 1,text,5,,,,No,CL.ADLBCAT,,Assigned,Sponsor,,,,,COM.ADLBHY.PARCAT1,,
IT.ADLBHY.AVAL,30,ADLBHY,AVAL,Analysis Value,float,8,2,,,No,,VL.ADLBHY.AVAL,,,,,,,COM.VLM,,
IT.ADLBHY.BASE,31,ADLBHY,BASE,Baseline Value,float,8,2,,,No,,,Derived,Sponsor,,MT.ADLBHY.BASE,,,,,
IT.ADLBHY.A1LO,32,ADLBHY,A1LO,Analysis Range 1 Lower Limit,float,8,1,,,No,,,Predecessor,,,,ADLBC.A1LO,,,,
IT.ADLBHY.A1HI,33,ADLBHY,A1HI,Analysis Range 1 Upper Limit,float,8,1,,,No,,,Predecessor,,,,ADLBC.A1HI,,,,
IT.ADLBHY.R2A1LO,34,ADLBHY,R2A1LO,Ratio to Analysis Range 1 Lower Limit,float,8,1,,,No,,,Predecessor,,,,ADLBC.R2A1LO,,,,
IT.ADLBHY.R2A1HI,35,ADLBHY,R2A1HI,Ratio to Analysis Range 1 Upper Limit,float,8,1,,,No,,,Predecessor,,,,ADLBC.R2A1HI,,,,
IT.ADLBHY.BR2A1LO,36,ADLBHY,BR2A1LO,Base Ratio to Analysis Range 1 Lower Lim,float,8,1,,,No,,,Predecessor,,,,ADLBC.BR2A1LO,,,,
IT.ADLBHY.BR2A1HI,37,ADLBHY,BR2A1HI,Base Ratio to Analysis Range 1 Upper Lim,float,8,1,,,No,,,Predecessor,,,,ADLBC.BR2A1HI,,,,
IT.ADLBHY.ABLFL,38,ADLBHY,ABLFL,Baseline Record Flag,text,1,,,,No,CL.Y_BLANK,,Predecessor,,,,ADLBC.ABLFL,,,,
IT.ADLBHY.SHIFT1,39,ADLBHY,SHIFT1,Shift 1,text,16,,,,No,CL.SHIFT,,Derived,Sponsor,,MT.SHIFT1,,,,,
IT.ADLBHY.SHIFT1N,40,ADLBHY,SHIFT1N,Shift 1 (N),integer,8,,,,No,CL.SHIFTN,,Assigned,Sponsor,,,,,COM.SHIFT1N,,
IT.ADLBHY.CRIT1,41,ADLBHY,CRIT1,Analysis Criterion 1,text,12,,,,No,,,Assigned,Sponsor,,,,,COM.ADLBHY.CRIT1,,
IT.ADLBHY.CRIT1FL,42,ADLBHY,CRIT1FL,Criterion 1 Evaluation Result Flag,text,1,,,,No,CL.YN,,Derived,Sponsor,,MT.ADLBHY.CRIT1FL,,,,,
IT.ADLBHY.CRIT1FN,43,ADLBHY,CRIT1FN,Criterion 1 Evaluation Result Flag (N),integer,8,,,,No,CL.YNN,,Assigned,Sponsor,,,,,COM.ADLBHY.CRIT1FN,,
IT.ADNPIX.STUDYID,1,ADNPIX,STUDYID,Study Identifier,text,12,,,,No,,,Predecessor,,,,ADSL.STUDYID,,,,
IT.ADNPIX.SITEID,2,ADNPIX,SITEID,Study Site Identifier,text,3,,,,No,,,Predecessor,,,,ADSL.SITEID,,,,
IT.ADNPIX.SITEGR1,3,ADNPIX,SITEGR1,Pooled Site Group 1,text,3,,,,No,,,Predecessor,,,,ADSL.SITEGR1,,,,
IT.ADNPIX.USUBJID,4,ADNPIX,USUBJID,Unique Subject Identifier,text,11,,,1,No,,,Predecessor,,,,QS.USUBJID,,,,
IT.ADNPIX.TRTSDT,5,ADNPIX,TRTSDT,Date of First Exposure to Treatment,integer,8,,DATE9.,,No,,,Predecessor,,,,ADSL.TRTSDT,,,,
IT.ADNPIX.TRTEDT,6,ADNPIX,TRTEDT,Date of Last Exposure to Treatment,integer,8,,DATE9.,,No,,,Predecessor,,,,ADSL.TRTEDT,,,,
IT.ADNPIX.TRTP,7,ADNPIX,TRTP,Planned Treatment,text,20,,,,No,CL.ARM,,Predecessor,,,,ADSL.TRT01P,,,,
IT.ADNPIX.TRTPN,8,ADNPIX,TRTPN,Planned Treatment (N),integer,8,,,,No,CL.ARMN,,Predecessor,,,,ADSL.TRT01PN,,,,
IT.ADNPIX.AGE,9,ADNPIX,AGE,Age,integer,8,,,,No,,,Predecessor,,,,ADSL.AGE,,,,
IT.ADNPIX.AGEGR1,10,ADNPIX,AGEGR1,Pooled Age Group 1,text,5,,,,No,CL.AGEGR1,,Predecessor,,,,ADSL.AGEGR1,,,,
IT.ADNPIX.AGEGR1N,11,ADNPIX,AGEGR1N,Pooled Age Group 1 (N),integer,8,,,,No,CL.AGEGR1N,,Predecessor,,,,ADSL.AGEGR1N,,,,
IT.ADNPIX.RACE,12,ADNPIX,RACE,Race,text,32,,,,No,CL.RACE,,Predecessor,,,,ADSL.RACE,,,,
IT.ADNPIX.RACEN,13,ADNPIX,RACEN,Race (N),integer,8,,,,No,CL.RACEN,,Predecessor,,,,ADSL.RACEN,,,,
IT.ADNPIX.SEX,14,ADNPIX,SEX,Sex,text,1,,,,No,CL.SEX,,Predecessor,,,,ADSL.SEX,,,,
IT.ADNPIX.ITTFL,15,ADNPIX,ITTFL,Intent-to-Treat Population Flag,text,1,,,,No,CL.YN,,Predecessor,,,,ADSL.ITTFL,,,,
IT.ADNPIX.EFFFL,16,ADNPIX,EFFFL,Efficacy Population Flag,text,1,,,,No,CL.YN,,Predecessor,,,,ADSL.EFFFL,,,,
IT.ADNPIX.COMP24FL,17,ADNPIX,COMP24FL,Completers of Week 24 Population Flag,text,1,,,,No,CL.YN,,Predecessor,,,,ADSL.COMP24FL,,,,
IT.ADNPIX.AVISIT,18,ADNPIX,AVISIT,Analysis Visit,text,16,,,3,No,CL.ADNPIX.AVISIT,,Derived,Sponsor,,MT.ADNPIX.AVISIT,,,,,
IT.ADNPIX.AVISITN,19,ADNPIX,AVISITN,Analysis Visit (N),integer,8,,,,No,CL.ADNPIX.AVISITN,,Derived,Sponsor,,MT.AVISITN,,,,,
IT.ADNPIX.ADY,20,ADNPIX,ADY,Analysis Relative Day,integer,8,,,,No,,,Derived,Sponsor,,MT.ADY,,,,,
IT.ADNPIX.ADT,21,ADNPIX,ADT,Analysis Date,integer,8,,DATE9.,4,No,,,Derived,Sponsor,,MT.ADNPIX.ADT,,,,,
IT.ADNPIX.VISITNUM,22,ADNPIX,VISITNUM,Visit Number,float,8,1,,,No,CL.ADNPIX.VISITNUM,,Predecessor,,,,QS.VISITNUM,,,,
IT.ADNPIX.VISIT,23,ADNPIX,VISIT,Visit Name,text,19,,,,No,CL.ADNPIX.VISIT,,Predecessor,,,,QS.VISIT,,,,
IT.ADNPIX.PARAM,24,ADNPIX,PARAM,Parameter,text,100,,,,No,CL.PARAM_ADQSNPIX,,Predecessor,,,,QS.QSTEST,,,,
IT.ADNPIX.PARAMCD,25,ADNPIX,PARAMCD,Parameter Code,text,8,,,2,No,CL.PARAMCD_ADQSNPIX,,Predecessor,,,,QS.QSTESTCD,,,,
IT.ADNPIX.PARAMN,26,ADNPIX,PARAMN,Parameter (N),integer,8,,,,No,CL.PARAMN_ADQSNPIX,,Assigned,Sponsor,,,,,COM.ADNPIX.PARAMN,,
IT.ADNPIX.PARAMTYP,27,ADNPIX,PARAMTYP,Parameter Type,text,7,,,,No,CL.PARAMTYP,,Assigned,Sponsor,,,,,COM.PARAMTYP,,
IT.ADNPIX.AVAL,28,ADNPIX,AVAL,Analysis Value,integer,8,,,,No,,VL.ADNPIX.AVAL,,,,,,,COM.VLM,,
IT.ADNPIX.BASE,29,ADNPIX,BASE,Baseline Value,integer,8,,,,No,,,Derived,Sponsor,,MT.ADNPIX.BASE,,,,,
IT.ADNPIX.CHG,30,ADNPIX,CHG,Change from Baseline,integer,8,,,,No,,,Derived,Sponsor,,MT.CHG,,,,,
IT.ADNPIX.PCHG,31,ADNPIX,PCHG,Percent Change from Baseline,integer,8,,,,No,,,Derived,Sponsor,,MT.PCHG,,,,,
IT.ADNPIX.ABLFL,32,ADNPIX,ABLFL,Baseline Record Flag,text,1,,,,No,CL.Y_BLANK,,Predecessor,,,,QS.QSBLFL,,,,
IT.ADNPIX.ANL01FL,33,ADNPIX,ANL01FL,Analysis Flag 01,text,1,,,,No,CL.Y_BLANK,,Derived,Sponsor,,MT.ADNPIX.ANL01FL,,,,,
IT.ADNPIX.DTYPE,34,ADNPIX,DTYPE,Derivation Type,text,7,,,,No,CL.DTYPE,,Assigned,Sponsor,,,,,COM.DTYPE,,
IT.ADNPIX.AWRANGE,35,ADNPIX,AWRANGE,Analysis Window Valid Relative Range,text,9,,,,No,,,Derived,Sponsor,,MT.ADNPIX.AWRANGE,,,,,
IT.ADNPIX.AWTARGET,36,ADNPIX,AWTARGET,Analysis Window Target,integer,8,,,,No,,,Derived,Sponsor,,MT.ADNPIX.AWTARGET,,,,,
IT.ADNPIX.AWTDIFF,37,ADNPIX,AWTDIFF,Analysis Window Diff from Target,integer,8,,,,No,,,Derived,Sponsor,,MT.ADNPIX.AWTDIFF,,,,,
IT.ADNPIX.AWLO,38,ADNPIX,AWLO,Analysis Window Beginning Timepoint,integer,8,,,,No,,,Derived,Sponsor,,MT.ADNPIX.AWLO,,,,,
IT.ADNPIX.AWHI,39,ADNPIX,AWHI,Analysis Window Ending Timepoint,integer,8,,,,No,,,Derived,Sponsor,,MT.ADNPIX.AWHI,,,,,
IT.ADNPIX.AWU,40,ADNPIX,AWU,Analysis Window Unit,text,4,,,,No,CL.AWU,,Derived,Sponsor,,MT.ADNPIX.AWU,,,,,
IT.ADNPIX.QSSEQ,41,ADNPIX,QSSEQ,Sequence Number,integer,8,,,,No,,,Predecessor,,,,QS.QSSEQ,,,,
IT.ADTTE.STUDYID,1,ADTTE,STUDYID,Study Identifier,text,12,,,,No,,,Predecessor,,,,ADSL.STUDYID,,,,
IT.ADTTE.SITEID,2,ADTTE,SITEID,Study Site Identifier,text,3,,,,No,,,Predecessor,,,,ADSL.SITEID,,,,
IT.ADTTE.USUBJID,3,ADTTE,USUBJID,Unique Subject Identifier,text,11,,,1,No,,,Predecessor,,,,ADSL.USUBJID,,,,
IT.ADTTE.AGE,4,ADTTE,AGE,Age,integer,8,,,,No,,,Predecessor,,,,ADSL.AGE,,,,
IT.ADTTE.AGEGR1,5,ADTTE,AGEGR1,Pooled Age Group 1,text,5,,,,No,CL.AGEGR1,,Predecessor,,,,ADSL.AGEGR1,,,,
IT.ADTTE.AGEGR1N,6,ADTTE,AGEGR1N,Pooled Age Group 1 (N),integer,8,,,,No,CL.AGEGR1N,,Predecessor,,,,ADSL.AGEGR1N,,,,
IT.ADTTE.RACE,7,ADTTE,RACE,Race,text,32,,,,No,CL.RACE,,Predecessor,,,,ADSL.RACE,,,,
IT.ADTTE.RACEN,8,ADTTE,RACEN,Race (N),integer,8,,,,No,CL.RACEN,,Predecessor,,,,ADSL.RACEN,,,,
IT.ADTTE.SEX,9,ADTTE,SEX,Sex,text,1,,,,No,CL.SEX,,Predecessor,,,,ADSL.SEX,,,,
IT.ADTTE.TRTSDT,10,ADTTE,TRTSDT,Date of First Exposure to Treatment,integer,8,,DATE9.,,No,,,Predecessor,,,,ADSL.TRTSDT,,,,
IT.ADTTE.TRTEDT,11,ADTTE,TRTEDT,Date of Last Exposure to Treatment,integer,8,,DATE9.,,No,,,Predecessor,,,,ADSL.TRTEDT,,,,
IT.ADTTE.TRTDUR,12,ADTTE,TRTDUR,Duration of treatment (days),integer,8,,,,No,,,Predecessor,,,,ADSL.TRTDURD,,,,
IT.ADTTE.TRTP,13,ADTTE,TRTP,Planned Treatment,text,20,,,,No,CL.ARM,,Predecessor,,,,ADSL.TRT01P,,,,
IT.ADTTE.TRTA,14,ADTTE,TRTA,Actual Treatment,text,20,,,,No,CL.ARM,,Predecessor,,,,ADSL.TRT01A,,,,
IT.ADTTE.TRTAN,15,ADTTE,TRTAN,Actual Treatment (N),integer,8,,,,No,CL.ARMN,,Predecessor,,,,ADSL.TRT01AN,,,,
IT.ADTTE.PARAM,16,ADTTE,PARAM,Parameter,text,100,,,,No,CL.PARAM_ADTTE,,Assigned,Sponsor,,,,,COM.ADTTE.PARAM,,
IT.ADTTE.PARAMCD,17,ADTTE,PARAMCD,Parameter Code,text,8,,,2,No,CL.PARAMCD_ADTTE,,Assigned,Sponsor,,,,,COM.ADTTE.PARAMCD,,
IT.ADTTE.AVAL,18,ADTTE,AVAL,Analysis Value,integer,8,,,,No,,VL.ADTTE.AVAL,,,,,,,COM.VLM,,
IT.ADTTE.STARTDT,19,ADTTE,STARTDT,Time to Event Origin Date for Subject,integer,8,,DATE9.,,No,,,Predecessor,,,,ADTTE.STARTDT,,,,
IT.ADTTE.ADT,20,ADTTE,ADT,Analysis Date,integer,8,,DATE9.,,No,,,Derived,Sponsor,,MT.ADTTE.ADT,,,,,
IT.ADTTE.CNSR,21,ADTTE,CNSR,Censor,integer,8,,,,No,CL.CENSOR,,Derived,Sponsor,,MT.ADTTE.CNSR,,,,,
IT.ADTTE.EVNTDESC,22,ADTTE,EVNTDESC,Event or Censoring Description,text,25,,,,No,,,Derived,Sponsor,,MT.ADTTE.EVNTDESC,,,,,
IT.ADTTE.SRCDOM,23,ADTTE,SRCDOM,Source Domain,text,4,,,,No,,,Derived,Sponsor,,MT.ADTTE.SRCDOM,,,,,
IT.ADTTE.SRCVAR,24,ADTTE,SRCVAR,Source Variable,text,6,,,,No,,,Derived,Sponsor,,MT.ADTTE.SRCVAR,,,,,
IT.ADTTE.SRCSEQ,25,ADTTE,SRCSEQ,Source Sequence Number,integer,8,,,,No,,,Derived,Sponsor,,MT.ADTTE.SRCSEQ,,,,,
IT.ADTTE.SAFFL,26,ADTTE,SAFFL,Safety Population Flag,text,1,,,,No,CL.YN,,Predecessor,,,,ADSL.SAFFL,,,,
IT.ADVS.STUDYID,1,ADVS,STUDYID,Study Identifier,text,12,,,,No,,,Predecessor,,,,ADSL.STUDYID,,,,
IT.ADVS.SITEID,2,ADVS,SITEID,Study Site Identifier,text,3,,,,No,,,Predecessor,,,,ADSL.SITEID,,,,
IT.ADVS.USUBJID,3,ADVS,USUBJID,Unique Subject Identifier,text,11,,,1,No,,,Predecessor,,,,VS.USUBJID,,,,
IT.ADVS.AGE,4,ADVS,AGE,Age,integer,8,,,,No,,,Predecessor,,,,ADSL.AGE,,,,
IT.ADVS.AGEGR1,5,ADVS,AGEGR1,Pooled Age Group 1,text,5,,,,No,CL.AGEGR1,,Predecessor,,,,ADSL.AGEGR1,,,,
IT.ADVS.AGEGR1N,6,ADVS,AGEGR1N,Pooled Age Group 1 (N),integer,8,,,,No,CL.AGEGR1N,,Predecessor,,,,ADSL.AGEGR1N,,,,
IT.ADVS.RACE,7,ADVS,RACE,Race,text,32,,,,No,CL.RACE,,Predecessor,,,,ADSL.RACE,,,,
IT.ADVS.RACEN,8,ADVS,RACEN,Race (N),integer,8,,,,No,CL.RACEN,,Predecessor,,,,ADSL.RACEN,,,,
IT.ADVS.SEX,9,ADVS,SEX,Sex,text,1,,,,No,CL.SEX,,Predecessor,,,,ADSL.SEX,,,,
IT.ADVS.SAFFL,10,ADVS,SAFFL,Safety Population Flag,text,1,,,,No,CL.YN,,Predecessor,,,,ADSL.SAFFL,,,,
IT.ADVS.TRTSDT,11,ADVS,TRTSDT,Date of First Exposure to Treatment,integer,8,,DATE9.,,No,,,Predecessor,,,,ADSL.TRTSDT,,,,
IT.ADVS.TRTEDT,12,ADVS,TRTEDT,Date of Last Exposure to Treatment,integer,8,,DATE9.,,No,,,Predecessor,,,,ADSL.TRTEDT,,,,
IT.ADVS.TRTP,13,ADVS,TRTP,Planned Treatment,text,20,,,,No,CL.ARM,,Predecessor,,,,ADSL.TRT01P,,,,
IT.ADVS.TRTPN,14,ADVS,TRTPN,Planned Treatment (N),integer,8,,,,No,CL.ARMN,,Predecessor,,,,ADSL.TRT01PN,,,,
IT.ADVS.TRTA,15,ADVS,TRTA,Actual Treatment,text,20,,,,No,CL.ARM,,Predecessor,,,,ADSL.TRT01A,,,,
IT.ADVS.TRTAN,16,ADVS,TRTAN,Actual Treatment (N),integer,8,,,,No,CL.ARMN,,Predecessor,,,,ADSL.TRT01AN,,,,
IT.ADVS.PARAMCD,17,ADVS,PARAMCD,Parameter Code,text,8,,,2,No,CL.PARAMCD_ADVS,,Predecessor,,,,VS.VSTESTCD,,,,
IT.ADVS.PARAM,18,ADVS,PARAM,Parameter,text,100,,,,No,CL.PARAM_ADVS,,Predecessor,,,,VS.VSTEST,,,,
IT.ADVS.PARAMN,19,ADVS,PARAMN,Parameter (N),integer,8,,,,No,CL.PARAMN_ADVS,,Assigned,Sponsor,,,,,COM.PARAMN,,
IT.ADVS.ADT,20,ADVS,ADT,Analysis Date,integer,8,,DATE9.,,No,,,Derived,Sponsor,,MT.ADVS.ADT,,,,,
IT.ADVS.ADY,21,ADVS,ADY,Analysis Relative Day,integer,8,,,,No,,,Predecessor,,,,VS.VSDY,,,,
IT.ADVS.ATPTN,22,ADVS,ATPTN,Analysis Timepoint (N),integer,8,,,,No,CL.ADVS.ATPTN,,Assigned,Sponsor,,,,,COM.ADVS.ATPTN,,
IT.ADVS.ATPT,23,ADVS,ATPT,Analysis Timepoint,text,30,,,4,No,CL.ADVS.ATPT,,Predecessor,,,,VS.VSTPT,,,,
IT.ADVS.AVISIT,24,ADVS,AVISIT,Analysis Visit,text,16,,,3,No,CL.ADVS.AVISIT,,Derived,Sponsor,,MT.ADVS.AVISIT,,,,,
IT.ADVS.AVISITN,25,ADVS,AVISITN,Analysis Visit (N),integer,8,,,,No,CL.ADVS.AVISITN,,Assigned,Sponsor,,,,,COM.AVISITN,,
IT.ADVS.AVAL,26,ADVS,AVAL,Analysis Value,float,8,1,,,No,,VL.ADVS.AVAL,,,,,,,COM.VLM,,
IT.ADVS.BASE,27,ADVS,BASE,Baseline Value,float,8,1,,,No,,,Derived,Sponsor,,MT.ADVS.BASE,,,,,
IT.ADVS.BASETYPE,28,ADVS,BASETYPE,Baseline Type,text,30,,,,No,,,Predecessor,,,,VS.VSTPT,,,,
IT.ADVS.CHG,29,ADVS,CHG,Change from Baseline,float,8,1,,,No,,,Derived,Sponsor,,MT.CHG,,,,,
IT.ADVS.PCHG,30,ADVS,PCHG,Percent Change from Baseline,float,8,1,,,No,,,Derived,Sponsor,,MT.PCHG,,,,,
IT.ADVS.VISITNUM,31,ADVS,VISITNUM,Visit Number,float,8,1,,,No,CL.ADVS.VISITNUM,,Predecessor,,,,VS.VISITNUM,,,,
IT.ADVS.VISIT,32,ADVS,VISIT,Visit Name,text,19,,,,No,CL.ADVS.VISIT,,Predecessor,,,,VS.VISIT,,,,
IT.ADVS.VSSEQ,33,ADVS,VSSEQ,Sequence Number,integer,8,,,,No,,,Predecessor,,,,VS.VSSEQ,,,,
IT.ADVS.ANL01FL,34,ADVS,ANL01FL,Analysis Flag 01,text,1,,,,No,CL.Y_BLANK,,Derived,Sponsor,,MT.ADVS.ANL01FL,,,,,
IT.ADVS.ABLFL,35,ADVS,ABLFL,Baseline Record Flag,text,1,,,,No,CL.Y_BLANK,,Predecessor,,,,VS.VSBLFL,,,,
IT.ADAE.STUDYID,1,ADAE,STUDYID,Study Identifier,text,12,,,,No,,,Predecessor,,,,ADSL.STUDYID,,,,
IT.ADAE.SITEID,2,ADAE,SITEID,Study Site Identifier,text,3,,,,No,,,Predecessor,,,,ADSL.SITEID,,,,
IT.ADAE.USUBJID,3,ADAE,USUBJID,Unique Subject Identifier,text,11,,,1,No,,,Predecessor,,,,AE.USUBJID,,,,
IT.ADAE.TRTA,4,ADAE,TRTA,Actual Treatment,text,20,,,,No,CL.ARM,,Predecessor,,,,ADSL.TRT01A,,,,
IT.ADAE.TRTAN,5,ADAE,TRTAN,Actual Treatment (N),integer,8,,,,No,CL.ARMN,,Predecessor,,,,ADSL.TRT01AN,,,,
IT.ADAE.AGE,6,ADAE,AGE,Age,integer,8,,,,No,,,Predecessor,,,,ADSL.AGE,,,,
IT.ADAE.AGEGR1,7,ADAE,AGEGR1,Pooled Age Group 1,text,5,,,,No,CL.AGEGR1,,Predecessor,,,,ADSL.AGEGR1,,,,
IT.ADAE.AGEGR1N,8,ADAE,AGEGR1N,Pooled Age Group 1 (N),integer,8,,,,No,CL.AGEGR1N,,Predecessor,,,,ADSL.AGEGR1N,,,,
IT.ADAE.RACE,9,ADAE,RACE,Race,text,32,,,,No,CL.RACE,,Predecessor,,,,ADSL.RACE,,,,
IT.ADAE.RACEN,10,ADAE,RACEN,Race (N),integer,8,,,,No,CL.RACEN,,Predecessor,,,,ADSL.RACEN,,,,
IT.ADAE.SEX,11,ADAE,SEX,Sex,text,1,,,,No,CL.SEX,,Predecessor,,,,ADSL.SEX,,,,
IT.ADAE.SAFFL,12,ADAE,SAFFL,Safety Population Flag,text,1,,,,No,CL.YN,,Predecessor,,,,ADSL.SAFFL,,,,
IT.ADAE.TRTSDT,13,ADAE,TRTSDT,Date of First Exposure to Treatment,integer,8,,DATE9.,,No,,,Predecessor,,,,ADSL.TRTSDT,,,,
IT.ADAE.TRTEDT,14,ADAE,TRTEDT,Date of Last Exposure to Treatment,integer,8,,DATE9.,,No,,,Predecessor,,,,ADSL.TRTEDT,,,,
IT.ADAE.ASTDT,15,ADAE,ASTDT,Analysis Start Date,integer,8,,DATE9.,3,No,,,Derived,Sponsor,,MT.ADAE.ASTDT,,,,,
IT.ADAE.ASTDTF,16,ADAE,ASTDTF,Analysis Start Date Imputation Flag,text,1,,,,No,CL.DATEFL,,Derived,Sponsor,,MT.ADAE.ASTDTF,,,,,
IT.ADAE.ASTDY,17,ADAE,ASTDY,Analysis Start Relative Day,integer,8,,,,No,,,Derived,Sponsor,,MT.ADAE.ASTDY,,,,,
IT.ADAE.AENDT,18,ADAE,AENDT,Analysis End Date,integer,8,,DATE9.,,No,,,Derived,Sponsor,,MT.ADAE.AENDT,,,,,
IT.ADAE.AENDY,19,ADAE,AENDY,Analysis End Relative Day,integer,8,,,,No,,,Derived,Sponsor,,MT.ADAE.AENDY,,,,,
IT.ADAE.ADURN,20,ADAE,ADURN,AE Duration (N),integer,8,,,,No,,,Derived,Sponsor,,MT.ADAE.ADURN,,,,,
IT.ADAE.ADURU,21,ADAE,ADURU,AE Duration Units,text,3,,,,No,,,Derived,Sponsor,,MT.ADAE.ADURU,,,,,
IT.ADAE.AETERM,22,ADAE,AETERM,Reported Term for the Adverse Event,text,46,,,2,No,,,Predecessor,,,,AE.AETERM,,,,
IT.ADAE.AELLT,23,ADAE,AELLT,Lowest Level Term,text,46,,,,No,CL.AEDICT,,Predecessor,,,,AE.AELLT,,,,
IT.ADAE.AELLTCD,24,ADAE,AELLTCD,Lowest Level Term Code,integer,8,,,,No,,,Predecessor,,,,AE.AELLTCD,,,,
IT.ADAE.AEDECOD,25,ADAE,AEDECOD,Dictionary-Derived Term,text,46,,,,No,CL.AEDICT,,Predecessor,,,,AE.AEDECOD,,,,
IT.ADAE.AEPTCD,26,ADAE,AEPTCD,Preferred Term Code,integer,8,,,,No,,,Predecessor,,,,AE.AEPTCD,,,,
IT.ADAE.AEHLT,27,ADAE,AEHLT,High Level Term,text,8,,,,No,CL.AEDICT,,Predecessor,,,,AE.AEHLT,,,,
IT.ADAE.AEHLTCD,28,ADAE,AEHLTCD,High Level Term Code,integer,8,,,,No,,,Predecessor,,,,AE.AEHLTCD,,,,
IT.ADAE.AEHLGT,29,ADAE,AEHLGT,High Level Group Term,text,9,,,,No,CL.AEDICT,,Predecessor,,,,AE.AEHLGT,,,,
IT.ADAE.AEHLGTCD,30,ADAE,AEHLGTCD,High Level Group Term Code,integer,8,,,,No,,,Predecessor,,,,AE.AEHLGTCD,,,,
IT.ADAE.AEBODSYS,31,ADAE,AEBODSYS,Body System or Organ Class,text,67,,,,No,CL.AEDICT,,Predecessor,,,,AE.AEBODSYS,,,,
IT.ADAE.AESOC,32,ADAE,AESOC,Primary System Organ Class,text,67,,,,No,CL.AEDICT,,Predecessor,,,,AE.AESOC,,,,
IT.ADAE.AESOCCD,33,ADAE,AESOCCD,Primary System Organ Class Code,integer,8,,,,No,,,Predecessor,,,,AE.AESOCCD,,,,
IT.ADAE.AESEV,34,ADAE,AESEV,Severity/Intensity,text,8,,,,No,CL.AESEV,,Predecessor,,,,AE.AESEV,,,,
IT.ADAE.AESER,35,ADAE,AESER,Serious Event,text,1,,,,No,CL.YN,,Predecessor,,,,AE.AESER,,,,
IT.ADAE.AESCAN,36,ADAE,AESCAN,Involves Cancer,text,1,,,,No,CL.YN,,Predecessor,,,,AE.AESCAN,,,,
IT.ADAE.AESCONG,37,ADAE,AESCONG,Congenital Anomaly or Birth Defect,text,1,,,,No,CL.YN,,Predecessor,,,,AE.AESCONG,,,,
IT.ADAE.AESDISAB,38,ADAE,AESDISAB,Persist or Signif Disability/Incapacity,text,1,,,,No,CL.YN,,Predecessor,,,,AE.AESDISAB,,,,
IT.ADAE.AESDTH,39,ADAE,AESDTH,Results in Death,text,1,,,,No,CL.YN,,Predecessor,,,,AE.AESDTH,,,,
IT.ADAE.AESHOSP,40,ADAE,AESHOSP,Requires or Prolongs Hospitalization,text,1,,,,No,CL.YN,,Predecessor,,,,AE.AESHOSP,,,,
IT.ADAE.AESLIFE,41,ADAE,AESLIFE,Is Life Threatening,text,1,,,,No,CL.YN,,Predecessor,,,,AE.AESLIFE,,,,
IT.ADAE.AESOD,42,ADAE,AESOD,Occurred with Overdose,text,1,,,,No,CL.YN,,Predecessor,,,,AE.AESOD,,,,
IT.ADAE.AEREL,43,ADAE,AEREL,Causality,text,8,,,,No,CL.AECAUS,,Predecessor,,,,AE.AEREL,,,,
IT.ADAE.AEACN,44,ADAE,AEACN,Action Taken with Study Treatment,text,1,,,,No,,,Predecessor,,,,AE.AEACN,,,,
IT.ADAE.AEOUT,45,ADAE,AEOUT,Outcome of Adverse Event,text,26,,,,No,CL.OUT,,Predecessor,,,,AE.AEOUT,,,,
IT.ADAE.AESEQ,46,ADAE,AESEQ,Sequence Number,integer,8,,,4,No,,,Predecessor,,,,AE.AESEQ,,,,
IT.ADAE.TRTEMFL,47,ADAE,TRTEMFL,Treatment Emergent Analysis Flag,text,1,,,,No,CL.Y_BLANK,,Derived,Sponsor,,MT.ADAE.TRTEMFL,,,,,
IT.ADAE.AOCCFL,48,ADAE,AOCCFL,1st Occurrence of Any AE Flag,text,1,,,,No,CL.Y_BLANK,,Derived,Sponsor,,MT.ADAE.AOCCFL,,,,,
IT.ADAE.AOCCSFL,49,ADAE,AOCCSFL,1st Occurrence of SOC Flag,text,1,,,,No,CL.Y_BLANK,,Derived,Sponsor,,MT.ADAE.AOCCSFL,,,,,
IT.ADAE.AOCCPFL,50,ADAE,AOCCPFL,1st Occurrence of Preferred Term Flag,text,1,,,,No,CL.Y_BLANK,,Derived,Sponsor,,MT.ADAE.AOCCPFL,,,,,
IT.ADAE.AOCC02FL,51,ADAE,AOCC02FL,1st Occurrence 02 Flag for Serious,text,1,,,,No,CL.Y_BLANK,,Derived,Sponsor,,MT.ADAE.AOCC02FL,,,,,
IT.ADAE.AOCC03FL,52,ADAE,AOCC03FL,1st Occurrence 03 Flag for Serious SOC,text,1,,,,No,CL.Y_BLANK,,Derived,Sponsor,,MT.ADAE.AOCC03FL,,,,,
IT.ADAE.AOCC04FL,53,ADAE,AOCC04FL,1st Occurrence 04 Flag for Serious PT,text,1,,,,No,CL.Y_BLANK,,Derived,Sponsor,,MT.ADAE.AOCC04FL,,,,,
IT.ADAE.CQ01NAM,54,ADAE,CQ01NAM,Customized Query 01 Name,text,19,,,,No,,,Derived,Sponsor,,MT.ADAE.CQ01NAM,,,,,
IT.ADAE.AOCC01FL,55,ADAE,AOCC01FL,1st Occurrence 01 Flag for CQ01,text,1,,,,No,CL.Y_BLANK,,Derived,Sponsor,,MT.ADAE.AOCC01FL,,,,,
