<?xml version="1.0" encoding="UTF-8" standalone="no"?>
<ODM xmlns="http://www.cdisc.org/ns/odm/v1.3" xmlns:def="http://www.cdisc.org/ns/def/v2.1"
     xmlns:xlink="http://www.w3.org/1999/xlink" CreationDateTime="2026-02-23T11:20:58"
     FileOID="Nurocor.MDR.Default_Library.683.28.MDR-Define_1.1.0.ADaMSpecifications_GSKMDES1" FileType="Snapshot"
     ODMVersion="1.3.2" def:Context="Submission">
    <Study OID="STUDY_ADaMSpecifications_GSKMDES1">
        <GlobalVariables>
            <StudyName>ADaM Specifications</StudyName>
            <StudyDescription>ADaM Specifications</StudyDescription>
            <ProtocolName>ADaM Specifications</ProtocolName>
        </GlobalVariables>
        <MetaDataVersion xmlns:mdr="http://www.nurocor.com/ns/MDR-XML/v1.0" Name="ADaM Specifications MDV"
                         OID="MDV.ADaMSpecifications_GSKMDES1_6fc471e4_972c_3160_a0bf_ccf77ec66f48"
                         def:DefineVersion="2.1.0" mdr:MDRVersion="1.1.0">
            <def:Standards>
                <def:Standard Name="ADaMIG" OID="STD.ADaMIG-1.2" Status="Final" Type="IG" Version="1.2"/>
                <def:Standard Name="CDISC/NCI" OID="STD.CT.SDTM.20240329" PublishingSet="SDTM" Status="Final" Type="CT"
                              Version="2024-03-29"/>
            </def:Standards>
            <ItemGroupDef Domain="G_OCCDS" Name="G_OCCDS" OID="IG_G_OCCDS_GSKADaMMDES1" Purpose="Analysis"
                          Repeating="Yes" def:Structure="One record per subject per event"
                          mdr:DatePublished="2025-09-17" mdr:Status="Approved">
                <Description>
                    <TranslatedText xml:lang="en"></TranslatedText>
                </Description>
                <ItemRef ItemOID="IG_G_OCCDS_GSKADaMMDES1.IT_STUDYID_GSKADaMG_OCCDSMDE1" KeySequence="2" Mandatory="Yes"
                         OrderNumber="10"/>
                <ItemRef ItemOID="IG_G_OCCDS_GSKADaMMDES1.IT_USUBJID_GSKADaMG_OCCDSMDE1" KeySequence="1" Mandatory="Yes"
                         OrderNumber="20"/>
                <ItemRef ItemOID="IG_G_OCCDS_GSKADaMMDES1.IT_SUBJID_GSKADaMG_OCCDSMDE1" Mandatory="No"
                         OrderNumber="25"/>
                <ItemRef ItemOID="IG_G_OCCDS_GSKADaMMDES1.IT_SITEID_GSKADaMG_OCCDSMDE1" Mandatory="No"
                         OrderNumber="30"/>
                <ItemRef ItemOID="IG_G_OCCDS_GSKADaMMDES1.IT_TRTP_GSKADaMG_OCCDSMDE1" Mandatory="No"
                         MethodOID="MT_TRTP_GSKADaMG_OCCDSMDE1" OrderNumber="120"/>
                <ItemRef ItemOID="IG_G_OCCDS_GSKADaMMDES1.IT_TRTA_GSKADaMG_OCCDSMDE1" Mandatory="No"
                         MethodOID="MT_TRTA_GSKADaMG_OCCDSMDE1" OrderNumber="140"/>
                <ItemRef ItemOID="IG_G_OCCDS_GSKADaMMDES1.IT_TRTSEQP_GSKADaMG_OCCDSMDE1" Mandatory="No"
                         OrderNumber="160"/>
                <ItemRef ItemOID="IG_G_OCCDS_GSKADaMMDES1.IT_TRTSEQA_GSKADaMG_OCCDSMDE1" Mandatory="No"
                         OrderNumber="180"/>
                <ItemRef ItemOID="IG_G_OCCDS_GSKADaMMDES1.IT_TPERIODC_GSKADaMG_OCCDSMDE1" Mandatory="No"
                         OrderNumber="230"/>
                <ItemRef ItemOID="IG_G_OCCDS_GSKADaMMDES1.IT_TRT01A_GSKADaMG_OCCDSMDE1" Mandatory="Yes"
                         OrderNumber="160"/>
                <ItemRef ItemOID="IG_G_OCCDS_GSKADaMMDES1.IT_TRT01P_GSKADaMG_OCCDSMDE1" Mandatory="Yes"
                         OrderNumber="180"/>
                <ItemRef ItemOID="IG_G_OCCDS_GSKADaMMDES1.IT_APERIODC_GSKADaMG_OCCDSMDE1" Mandatory="No"
                         OrderNumber="210"/>
                <ItemRef ItemOID="IG_G_OCCDS_GSKADaMMDES1.IT_APHASE_GSKADaMG_OCCDSMDE1" Mandatory="No"
                         OrderNumber="240"/>
                <ItemRef ItemOID="IG_G_OCCDS_GSKADaMMDES1.IT_xxTERM_GSKADaMG_OCCDSMDE1" KeySequence="3" Mandatory="Yes"
                         OrderNumber="410"/>
                <ItemRef ItemOID="IG_G_OCCDS_GSKADaMMDES1.IT_xxSEQ_GSKADaMG_OCCDSMDE1" KeySequence="5" Mandatory="Yes"
                         OrderNumber="420"/>
                <ItemRef ItemOID="IG_G_OCCDS_GSKADaMMDES1.IT_xxDECOD_GSKADaMG_OCCDSMDE1" Mandatory="No"
                         OrderNumber="430"/>
                <ItemRef ItemOID="IG_G_OCCDS_GSKADaMMDES1.IT_ADURU_GSKADaMG_OCCDSMDE1" Mandatory="No"
                         OrderNumber="450"/>
                <ItemRef ItemOID="IG_G_OCCDS_GSKADaMMDES1.IT_WEIGHTBL_GSKADaMG_OCCDSMDE1" Mandatory="No"
                         OrderNumber="35"/>
                <ItemRef ItemOID="IG_G_OCCDS_GSKADaMMDES1.IT_AGE_GSKADaMG_OCCDSMDE1" Mandatory="No" OrderNumber="40"/>
                <ItemRef ItemOID="IG_G_OCCDS_GSKADaMMDES1.IT_TRTPN_GSKADaMG_OCCDSMDE1" Mandatory="No"
                         OrderNumber="130"/>
                <ItemRef ItemOID="IG_G_OCCDS_GSKADaMMDES1.IT_TRTAN_GSKADaMG_OCCDSMDE1" Mandatory="No"
                         OrderNumber="150"/>
                <ItemRef ItemOID="IG_G_OCCDS_GSKADaMMDES1.IT_TRTSEQPN_GSKADaMG_OCCDSMDE1" Mandatory="No"
                         OrderNumber="170"/>
                <ItemRef ItemOID="IG_G_OCCDS_GSKADaMMDES1.IT_TRTSEQAN_GSKADaMG_OCCDSMDE1" Mandatory="No"
                         OrderNumber="190"/>
                <ItemRef ItemOID="IG_G_OCCDS_GSKADaMMDES1.IT_TPERIOD_GSKADaMG_OCCDSMDE1" Mandatory="No"
                         MethodOID="MT_TPERIOD_GSKADaMG_OCCDSMDE1" OrderNumber="220"/>
                <ItemRef ItemOID="IG_G_OCCDS_GSKADaMMDES1.IT_TRT01AN_GSKADaMG_OCCDSMDE1" Mandatory="Yes"
                         OrderNumber="170"/>
                <ItemRef ItemOID="IG_G_OCCDS_GSKADaMMDES1.IT_TRT01PN_GSKADaMG_OCCDSMDE1" Mandatory="Yes"
                         OrderNumber="190"/>
                <ItemRef ItemOID="IG_G_OCCDS_GSKADaMMDES1.IT_APERIOD_GSKADaMG_OCCDSMDE1" Mandatory="No"
                         MethodOID="MT_APERIOD_GSKADaMG_OCCDSMDE1" OrderNumber="200"/>
                <ItemRef ItemOID="IG_G_OCCDS_GSKADaMMDES1.IT_APHASEN_GSKADaMG_OCCDSMDE1" Mandatory="No"
                         OrderNumber="250"/>
                <ItemRef ItemOID="IG_G_OCCDS_GSKADaMMDES1.IT_TPERSTDY_GSKADaMG_OCCDSMDE1" Mandatory="No"
                         MethodOID="MT_TPERSTDY_GSKADaMG_OCCDSMDE1" OrderNumber="270"/>
                <ItemRef ItemOID="IG_G_OCCDS_GSKADaMMDES1.IT_TPERENDY_GSKADaMG_OCCDSMDE1" Mandatory="No"
                         MethodOID="MT_TPERENDY_GSKADaMG_OCCDSMDE1" OrderNumber="280"/>
                <ItemRef ItemOID="IG_G_OCCDS_GSKADaMMDES1.IT_ASTDT_GSKADaMG_OCCDSMDE1" KeySequence="4" Mandatory="No"
                         MethodOID="MT_ASTDT_GSKADaMG_OCCDSMDE1" OrderNumber="300"/>
                <ItemRef ItemOID="IG_G_OCCDS_GSKADaMMDES1.IT_ASTTM_GSKADaMG_OCCDSMDE1" Mandatory="No"
                         MethodOID="MT_ASTTM_GSKADaMG_OCCDSMDE1" OrderNumber="320"/>
                <ItemRef ItemOID="IG_G_OCCDS_GSKADaMMDES1.IT_ASTDTM_GSKADaMG_OCCDSMDE1" Mandatory="No"
                         MethodOID="MT_ASTDTM_GSKADaMG_OCCDSMDE1" OrderNumber="330"/>
                <ItemRef ItemOID="IG_G_OCCDS_GSKADaMMDES1.IT_ASTDY_GSKADaMG_OCCDSMDE1" Mandatory="No"
                         MethodOID="MT_ASTDY_GSKADaMG_OCCDSMDE1" OrderNumber="340"/>
                <ItemRef ItemOID="IG_G_OCCDS_GSKADaMMDES1.IT_AENDT_GSKADaMG_OCCDSMDE1" Mandatory="No"
                         MethodOID="MT_AENDT_GSKADaMG_OCCDSMDE1" OrderNumber="350"/>
                <ItemRef ItemOID="IG_G_OCCDS_GSKADaMMDES1.IT_AENTM_GSKADaMG_OCCDSMDE1" Mandatory="No"
                         MethodOID="MT_AENTM_GSKADaMG_OCCDSMDE1" OrderNumber="370"/>
                <ItemRef ItemOID="IG_G_OCCDS_GSKADaMMDES1.IT_AENDTM_GSKADaMG_OCCDSMDE1" Mandatory="No"
                         MethodOID="MT_AENDTM_GSKADaMG_OCCDSMDE1" OrderNumber="380"/>
                <ItemRef ItemOID="IG_G_OCCDS_GSKADaMMDES1.IT_AENDY_GSKADaMG_OCCDSMDE1" Mandatory="No"
                         MethodOID="MT_AENDY_GSKADaMG_OCCDSMDE1" OrderNumber="390"/>
                <ItemRef ItemOID="IG_G_OCCDS_GSKADaMMDES1.IT_ADURN_GSKADaMG_OCCDSMDE1" Mandatory="No"
                         OrderNumber="440"/>
                <ItemRef ItemOID="IG_G_OCCDS_GSKADaMMDES1.IT_ENRLFL_GSKADaMG_OCCDSMDE1" Mandatory="No"
                         OrderNumber="75"/>
                <ItemRef ItemOID="IG_G_OCCDS_GSKADaMMDES1.IT_FASFL_GSKADaMG_OCCDSMDE1" Mandatory="No" OrderNumber="80"/>
                <ItemRef ItemOID="IG_G_OCCDS_GSKADaMMDES1.IT_ITTFL_GSKADaMG_OCCDSMDE1" Mandatory="No" OrderNumber="90"/>
                <ItemRef ItemOID="IG_G_OCCDS_GSKADaMMDES1.IT_SAFFL_GSKADaMG_OCCDSMDE1" Mandatory="No"
                         OrderNumber="100"/>
                <ItemRef ItemOID="IG_G_OCCDS_GSKADaMMDES1.IT_PPROTFL_GSKADaMG_OCCDSMDE1" Mandatory="No"
                         OrderNumber="110"/>
                <ItemRef ItemOID="IG_G_OCCDS_GSKADaMMDES1.IT_SEX_GSKADaMG_OCCDSMDE1" Mandatory="No" OrderNumber="50"/>
                <ItemRef ItemOID="IG_G_OCCDS_GSKADaMMDES1.IT_ARACE_GSKADaMG_OCCDSMDE1" Mandatory="No" OrderNumber="60"/>
                <ItemRef ItemOID="IG_G_OCCDS_GSKADaMMDES1.IT_ACOUNTRY_GSKADaMG_OCCDSMDE1" Mandatory="No"
                         OrderNumber="70"/>
                <ItemRef ItemOID="IG_G_OCCDS_GSKADaMMDES1.IT_ASTDTF_GSKADaMG_OCCDSMDE1" Mandatory="No"
                         OrderNumber="310"/>
                <ItemRef ItemOID="IG_G_OCCDS_GSKADaMMDES1.IT_AENDTF_GSKADaMG_OCCDSMDE1" Mandatory="No"
                         OrderNumber="360"/>
                <ItemRef ItemOID="IG_G_OCCDS_GSKADaMMDES1.IT_ANL01FL_GSKADaMG_OCCDSMDE1" Mandatory="No"
                         OrderNumber="400"/>
                <ItemRef ItemOID="IG_G_OCCDS_GSKADaMMDES1.IT_ARACEN_GSKADaMG_OCCDSMDE1" Mandatory="No"
                         OrderNumber="65"/>
                <ItemRef ItemOID="IG_G_OCCDS_GSKADaMMDES1.IT_SEXN_GSKADaMG_OCCDSMDE1" Mandatory="No" OrderNumber="55"/>
                <def:Class Name="OCCURRENCE DATA STRUCTURE"/>
            </ItemGroupDef>
            <ItemGroupDef Domain="G_BDS" Name="G_BDS" OID="IG_G_BDS_GSKADaMMDES1" Purpose="Analysis" Repeating="Yes"
                          def:Structure="One record per subject per parameter per analysis visit"
                          mdr:DatePublished="2025-09-17" mdr:Status="Approved">
                <Description>
                    <TranslatedText xml:lang="en"></TranslatedText>
                </Description>
                <ItemRef ItemOID="IG_G_BDS_GSKADaMMDES1.IT_STUDYID_GSKADaMG_BDSMDE1" KeySequence="2" Mandatory="Yes"
                         OrderNumber="10"/>
                <ItemRef ItemOID="IG_G_BDS_GSKADaMMDES1.IT_USUBJID_GSKADaMG_BDSMDE1" KeySequence="1" Mandatory="Yes"
                         OrderNumber="20"/>
                <ItemRef ItemOID="IG_G_BDS_GSKADaMMDES1.IT_SUBJID_GSKADaMG_BDSMDE1" Mandatory="Yes" OrderNumber="25"/>
                <ItemRef ItemOID="IG_G_BDS_GSKADaMMDES1.IT_SITEID_GSKADaMG_BDSMDE1" Mandatory="Yes" OrderNumber="30"/>
                <ItemRef ItemOID="IG_G_BDS_GSKADaMMDES1.IT_TRTP_GSKADaMG_BDSMDE1" Mandatory="No"
                         MethodOID="MT_TRTP_GSKADaMG_BDSMDE1" OrderNumber="120"/>
                <ItemRef ItemOID="IG_G_BDS_GSKADaMMDES1.IT_TRTA_GSKADaMG_BDSMDE1" Mandatory="No"
                         MethodOID="MT_TRTA_GSKADaMG_BDSMDE1" OrderNumber="140"/>
                <ItemRef ItemOID="IG_G_BDS_GSKADaMMDES1.IT_TRT01A_GSKADaMG_BDSMDE1" Mandatory="No" OrderNumber="160"/>
                <ItemRef ItemOID="IG_G_BDS_GSKADaMMDES1.IT_TRT01P_GSKADaMG_BDSMDE1" Mandatory="Yes" OrderNumber="180"/>
                <ItemRef ItemOID="IG_G_BDS_GSKADaMMDES1.IT_TRTSEQP_GSKADaMG_BDSMDE1" Mandatory="No" OrderNumber="200"/>
                <ItemRef ItemOID="IG_G_BDS_GSKADaMMDES1.IT_TRTSEQA_GSKADaMG_BDSMDE1" Mandatory="No" OrderNumber="220"/>
                <ItemRef ItemOID="IG_G_BDS_GSKADaMMDES1.IT_APERIODC_GSKADaMG_BDSMDE1" Mandatory="No" OrderNumber="250"/>
                <ItemRef ItemOID="IG_G_BDS_GSKADaMMDES1.IT_APHASE_GSKADaMG_BDSMDE1" Mandatory="No"
                         MethodOID="MT_APHASE_GSKADaMG_BDSMDE1" OrderNumber="260"/>
                <ItemRef ItemOID="IG_G_BDS_GSKADaMMDES1.IT_VISIT_GSKADaMG_BDSMDE1" Mandatory="No" OrderNumber="280"/>
                <ItemRef ItemOID="IG_G_BDS_GSKADaMMDES1.IT_AVISIT_GSKADaMG_BDSMDE1" KeySequence="4" Mandatory="No"
                         OrderNumber="300"/>
                <ItemRef ItemOID="IG_G_BDS_GSKADaMMDES1.IT_ATPTREF_GSKADaMG_BDSMDE1" Mandatory="No" OrderNumber="320"/>
                <ItemRef ItemOID="IG_G_BDS_GSKADaMMDES1.IT_ATPT_GSKADaMG_BDSMDE1" Mandatory="No" OrderNumber="340"/>
                <ItemRef ItemOID="IG_G_BDS_GSKADaMMDES1.IT_PARCAT1_GSKADaMG_BDSMDE1" Mandatory="No" OrderNumber="480"/>
                <ItemRef ItemOID="IG_G_BDS_GSKADaMMDES1.IT_PARAM_GSKADaMG_BDSMDE1" Mandatory="Yes" OrderNumber="490"/>
                <ItemRef ItemOID="IG_G_BDS_GSKADaMMDES1.IT_PARAMCD_GSKADaMG_BDSMDE1" KeySequence="3" Mandatory="Yes"
                         OrderNumber="500"/>
                <ItemRef ItemOID="IG_G_BDS_GSKADaMMDES1.IT_AVALC_GSKADaMG_BDSMDE1" Mandatory="No" OrderNumber="510"/>
                <ItemRef ItemOID="IG_G_BDS_GSKADaMMDES1.IT_BASEC_GSKADaMG_BDSMDE1" Mandatory="No" OrderNumber="600"/>
                <ItemRef ItemOID="IG_G_BDS_GSKADaMMDES1.IT_AVALCAT1_GSKADaMG_BDSMDE1" Mandatory="No" OrderNumber="700"/>
                <ItemRef ItemOID="IG_G_BDS_GSKADaMMDES1.IT_AVACA1CD_GSKADaMG_BDSMDE1" Mandatory="No" OrderNumber="710"/>
                <ItemRef ItemOID="IG_G_BDS_GSKADaMMDES1.IT_BASECAT1_GSKADaMG_BDSMDE1" Mandatory="No" OrderNumber="720"/>
                <ItemRef ItemOID="IG_G_BDS_GSKADaMMDES1.IT_BASCT1CD_GSKADaMG_BDSMDE1" Mandatory="No" OrderNumber="730"/>
                <ItemRef ItemOID="IG_G_BDS_GSKADaMMDES1.IT_CHGCAT1_GSKADaMG_BDSMDE1" Mandatory="No" OrderNumber="740"/>
                <ItemRef ItemOID="IG_G_BDS_GSKADaMMDES1.IT_CHGCA1CD_GSKADaMG_BDSMDE1" Mandatory="No"
                         MethodOID="MT_CHGCA1CD_GSKADaMG_BDSMDE1" OrderNumber="750"/>
                <ItemRef ItemOID="IG_G_BDS_GSKADaMMDES1.IT_SRCDOM_GSKADaMG_BDSMDE1" Mandatory="No" OrderNumber="770"/>
                <ItemRef ItemOID="IG_G_BDS_GSKADaMMDES1.IT_SRCVAR_GSKADaMG_BDSMDE1" Mandatory="No" OrderNumber="780"/>
                <ItemRef ItemOID="IG_G_BDS_GSKADaMMDES1.IT_ASPERC_GSKADaMG_BDSMDE1" Mandatory="No" OrderNumber="880"/>
                <ItemRef ItemOID="IG_G_BDS_GSKADaMMDES1.IT_WEIGHTBL_GSKADaMG_BDSMDE1" Mandatory="No" OrderNumber="35"/>
                <ItemRef ItemOID="IG_G_BDS_GSKADaMMDES1.IT_AVAL_GSKADaMG_BDSMDE1" Mandatory="No" OrderNumber="520"/>
                <ItemRef ItemOID="IG_G_BDS_GSKADaMMDES1.IT_AGE_GSKADaMG_BDSMDE1" Mandatory="No" OrderNumber="40"/>
                <ItemRef ItemOID="IG_G_BDS_GSKADaMMDES1.IT_TRTPN_GSKADaMG_BDSMDE1" Mandatory="No" OrderNumber="130"/>
                <ItemRef ItemOID="IG_G_BDS_GSKADaMMDES1.IT_TRTAN_GSKADaMG_BDSMDE1" Mandatory="No" OrderNumber="150"/>
                <ItemRef ItemOID="IG_G_BDS_GSKADaMMDES1.IT_TRT01AN_GSKADaMG_BDSMDE1" Mandatory="No" OrderNumber="170"/>
                <ItemRef ItemOID="IG_G_BDS_GSKADaMMDES1.IT_TRT01PN_GSKADaMG_BDSMDE1" Mandatory="No" OrderNumber="190"/>
                <ItemRef ItemOID="IG_G_BDS_GSKADaMMDES1.IT_TRTSEQPN_GSKADaMG_BDSMDE1" Mandatory="No" OrderNumber="210"/>
                <ItemRef ItemOID="IG_G_BDS_GSKADaMMDES1.IT_TRTSEQAN_GSKADaMG_BDSMDE1" Mandatory="No" OrderNumber="230"/>
                <ItemRef ItemOID="IG_G_BDS_GSKADaMMDES1.IT_APERIOD_GSKADaMG_BDSMDE1" Mandatory="No"
                         MethodOID="MT_APERIOD_GSKADaMG_BDSMDE1" OrderNumber="240"/>
                <ItemRef ItemOID="IG_G_BDS_GSKADaMMDES1.IT_APHASEN_GSKADaMG_BDSMDE1" Mandatory="No" OrderNumber="270"/>
                <ItemRef ItemOID="IG_G_BDS_GSKADaMMDES1.IT_VISITNUM_GSKADaMG_BDSMDE1" Mandatory="No" OrderNumber="290"/>
                <ItemRef ItemOID="IG_G_BDS_GSKADaMMDES1.IT_AVISITN_GSKADaMG_BDSMDE1" Mandatory="No" OrderNumber="310"/>
                <ItemRef ItemOID="IG_G_BDS_GSKADaMMDES1.IT_ATPTN_GSKADaMG_BDSMDE1" Mandatory="No" OrderNumber="330"/>
                <ItemRef ItemOID="IG_G_BDS_GSKADaMMDES1.IT_APERADY_GSKADaMG_BDSMDE1" Mandatory="No"
                         MethodOID="MT_APERADY_GSKADaMG_BDSMDE1" OrderNumber="350"/>
                <ItemRef ItemOID="IG_G_BDS_GSKADaMMDES1.IT_ADT_GSKADaMG_BDSMDE1" Mandatory="No"
                         MethodOID="MT_ADT_GSKADaMG_BDSMDE1" OrderNumber="360"/>
                <ItemRef ItemOID="IG_G_BDS_GSKADaMMDES1.IT_ATM_GSKADaMG_BDSMDE1" Mandatory="No"
                         MethodOID="MT_ATM_GSKADaMG_BDSMDE1" OrderNumber="370"/>
                <ItemRef ItemOID="IG_G_BDS_GSKADaMMDES1.IT_ADTM_GSKADaMG_BDSMDE1" Mandatory="No"
                         MethodOID="MT_ADTM_GSKADaMG_BDSMDE1" OrderNumber="380"/>
                <ItemRef ItemOID="IG_G_BDS_GSKADaMMDES1.IT_ADY_GSKADaMG_BDSMDE1" Mandatory="No"
                         MethodOID="MT_ADY_GSKADaMG_BDSMDE1" OrderNumber="390"/>
                <ItemRef ItemOID="IG_G_BDS_GSKADaMMDES1.IT_ASTDT_GSKADaMG_BDSMDE1" Mandatory="No"
                         MethodOID="MT_ASTDT_GSKADaMG_BDSMDE1" OrderNumber="400"/>
                <ItemRef ItemOID="IG_G_BDS_GSKADaMMDES1.IT_ASTTM_GSKADaMG_BDSMDE1" Mandatory="No"
                         MethodOID="MT_ASTTM_GSKADaMG_BDSMDE1" OrderNumber="410"/>
                <ItemRef ItemOID="IG_G_BDS_GSKADaMMDES1.IT_ASTDTM_GSKADaMG_BDSMDE1" Mandatory="No"
                         MethodOID="MT_ASTDTM_GSKADaMG_BDSMDE1" OrderNumber="420"/>
                <ItemRef ItemOID="IG_G_BDS_GSKADaMMDES1.IT_ASTDY_GSKADaMG_BDSMDE1" Mandatory="No"
                         MethodOID="MT_ASTDY_GSKADaMG_BDSMDE1" OrderNumber="430"/>
                <ItemRef ItemOID="IG_G_BDS_GSKADaMMDES1.IT_AENDT_GSKADaMG_BDSMDE1" Mandatory="No"
                         MethodOID="MT_AENDT_GSKADaMG_BDSMDE1" OrderNumber="440"/>
                <ItemRef ItemOID="IG_G_BDS_GSKADaMMDES1.IT_AENTM_GSKADaMG_BDSMDE1" Mandatory="No"
                         MethodOID="MT_AENTM_GSKADaMG_BDSMDE1" OrderNumber="450"/>
                <ItemRef ItemOID="IG_G_BDS_GSKADaMMDES1.IT_AENDTM_GSKADaMG_BDSMDE1" Mandatory="No"
                         MethodOID="MT_AENDTM_GSKADaMG_BDSMDE1" OrderNumber="460"/>
                <ItemRef ItemOID="IG_G_BDS_GSKADaMMDES1.IT_AENDY_GSKADaMG_BDSMDE1" Mandatory="No"
                         MethodOID="MT_AENDY_GSKADaMG_BDSMDE1" OrderNumber="470"/>
                <ItemRef ItemOID="IG_G_BDS_GSKADaMMDES1.IT_PARAMN_GSKADaMG_BDSMDE1" Mandatory="No" OrderNumber="495"/>
                <ItemRef ItemOID="IG_G_BDS_GSKADaMMDES1.IT_BASE_GSKADaMG_BDSMDE1" Mandatory="No" OrderNumber="590"/>
                <ItemRef ItemOID="IG_G_BDS_GSKADaMMDES1.IT_CHG_GSKADaMG_BDSMDE1" Mandatory="No"
                         MethodOID="MT_CHG_GSKADaMG_BDSMDE1" OrderNumber="610"/>
                <ItemRef ItemOID="IG_G_BDS_GSKADaMMDES1.IT_A1LO_GSKADaMG_BDSMDE1" Mandatory="No" OrderNumber="620"/>
                <ItemRef ItemOID="IG_G_BDS_GSKADaMMDES1.IT_A1HI_GSKADaMG_BDSMDE1" Mandatory="No" OrderNumber="630"/>
                <ItemRef ItemOID="IG_G_BDS_GSKADaMMDES1.IT_PCHG_GSKADaMG_BDSMDE1" Mandatory="No"
                         MethodOID="MT_PCHG_GSKADaMG_BDSMDE1" OrderNumber="760"/>
                <ItemRef ItemOID="IG_G_BDS_GSKADaMMDES1.IT_SRCSEQ_GSKADaMG_BDSMDE1" Mandatory="No" OrderNumber="790"/>
                <ItemRef ItemOID="IG_G_BDS_GSKADaMMDES1.IT_ASEQ_GSKADaMG_BDSMDE1" Mandatory="No"
                         MethodOID="MT_ASEQ_GSKADaMG_BDSMDE1" OrderNumber="800"/>
                <ItemRef ItemOID="IG_G_BDS_GSKADaMMDES1.IT_ASPER_GSKADaMG_BDSMDE1" Mandatory="No"
                         MethodOID="MT_ASPER_GSKADaMG_BDSMDE1" OrderNumber="870"/>
                <ItemRef ItemOID="IG_G_BDS_GSKADaMMDES1.IT_ENRLFL_GSKADaMG_BDSMDE1" Mandatory="No" OrderNumber="75"/>
                <ItemRef ItemOID="IG_G_BDS_GSKADaMMDES1.IT_FASFL_GSKADaMG_BDSMDE1" Mandatory="No" OrderNumber="80"/>
                <ItemRef ItemOID="IG_G_BDS_GSKADaMMDES1.IT_ITTFL_GSKADaMG_BDSMDE1" Mandatory="No" OrderNumber="90"/>
                <ItemRef ItemOID="IG_G_BDS_GSKADaMMDES1.IT_SAFFL_GSKADaMG_BDSMDE1" Mandatory="No" OrderNumber="100"/>
                <ItemRef ItemOID="IG_G_BDS_GSKADaMMDES1.IT_PPROTFL_GSKADaMG_BDSMDE1" Mandatory="No" OrderNumber="110"/>
                <ItemRef ItemOID="IG_G_BDS_GSKADaMMDES1.IT_SEX_GSKADaMG_BDSMDE1" Mandatory="No" OrderNumber="50"/>
                <ItemRef ItemOID="IG_G_BDS_GSKADaMMDES1.IT_ARACE_GSKADaMG_BDSMDE1" Mandatory="No" OrderNumber="60"/>
                <ItemRef ItemOID="IG_G_BDS_GSKADaMMDES1.IT_ACOUNTRY_GSKADaMG_BDSMDE1" Mandatory="No" OrderNumber="70"/>
                <ItemRef ItemOID="IG_G_BDS_GSKADaMMDES1.IT_ADTF_GSKADaMG_BDSMDE1" Mandatory="No" OrderNumber="810"/>
                <ItemRef ItemOID="IG_G_BDS_GSKADaMMDES1.IT_ASTDTF_GSKADaMG_BDSMDE1" Mandatory="No" OrderNumber="830"/>
                <ItemRef ItemOID="IG_G_BDS_GSKADaMMDES1.IT_AENDTF_GSKADaMG_BDSMDE1" Mandatory="No" OrderNumber="850"/>
                <ItemRef ItemOID="IG_G_BDS_GSKADaMMDES1.IT_DTYPE_GSKADaMG_BDSMDE1" Mandatory="No" OrderNumber="530"/>
                <ItemRef ItemOID="IG_G_BDS_GSKADaMMDES1.IT_A1IND_GSKADaMG_BDSMDE1" Mandatory="No" OrderNumber="650"/>
                <ItemRef ItemOID="IG_G_BDS_GSKADaMMDES1.IT_ANL01FL_GSKADaMG_BDSMDE1" Mandatory="No" OrderNumber="540"/>
                <ItemRef ItemOID="IG_G_BDS_GSKADaMMDES1.IT_ABLFL_GSKADaMG_BDSMDE1" Mandatory="No" OrderNumber="580"/>
                <ItemRef ItemOID="IG_G_BDS_GSKADaMMDES1.IT_ARACEN_GSKADaMG_BDSMDE1" Mandatory="No" OrderNumber="65"/>
                <ItemRef ItemOID="IG_G_BDS_GSKADaMMDES1.IT_SEXN_GSKADaMG_BDSMDE1" Mandatory="No" OrderNumber="55"/>
                <ItemRef ItemOID="IG_G_BDS_GSKADaMMDES1.IT_A1INDCD_GSKADaMG_BDSMDE1" Mandatory="No" OrderNumber="640"/>
                <ItemRef ItemOID="IG_G_BDS_GSKADaMMDES1.IT_ATMF_GSKADaMG_BDSMDE1" Mandatory="No" OrderNumber="820"/>
                <ItemRef ItemOID="IG_G_BDS_GSKADaMMDES1.IT_ASTTMF_GSKADaMG_BDSMDE1" Mandatory="No" OrderNumber="840"/>
                <ItemRef ItemOID="IG_G_BDS_GSKADaMMDES1.IT_AENTMF_GSKADaMG_BDSMDE1" Mandatory="No" OrderNumber="860"/>
                <def:Class Name="BASIC DATA STRUCTURE"/>
            </ItemGroupDef>
            <ItemGroupDef Domain="ADVS" Name="ADVS" OID="IG_ADVS_GSKADaMMDES1" Purpose="Analysis" Repeating="Yes"
                          def:Structure="One record per subject per parameter per analysis visit per timepoint"
                          mdr:DatePublished="2025-09-17" mdr:Status="Approved">
                <Description>
                    <TranslatedText xml:lang="en"></TranslatedText>
                </Description>
                <ItemRef ItemOID="IG_ADVS_GSKADaMMDES1.IT_STUDYID_GSKADaMADVSMDE1" KeySequence="2" Mandatory="Yes"
                         OrderNumber="10"/>
                <ItemRef ItemOID="IG_ADVS_GSKADaMMDES1.IT_USUBJID_GSKADaMADVSMDE1" KeySequence="1" Mandatory="Yes"
                         OrderNumber="20"/>
                <ItemRef ItemOID="IG_ADVS_GSKADaMMDES1.IT_SUBJID_GSKADaMADVSMDE1" Mandatory="Yes" OrderNumber="30"/>
                <ItemRef ItemOID="IG_ADVS_GSKADaMMDES1.IT_SITEID_GSKADaMADVSMDE1" Mandatory="Yes" OrderNumber="40"/>
                <ItemRef ItemOID="IG_ADVS_GSKADaMMDES1.IT_TRTP_GSKADaMADVSMDE1" Mandatory="No"
                         MethodOID="MT_TRTP_GSKADaMADVSMDE1" OrderNumber="170"/>
                <ItemRef ItemOID="IG_ADVS_GSKADaMMDES1.IT_TRTA_GSKADaMADVSMDE1" Mandatory="No"
                         MethodOID="MT_TRTA_GSKADaMADVSMDE1" OrderNumber="190"/>
                <ItemRef ItemOID="IG_ADVS_GSKADaMMDES1.IT_TRT01A_GSKADaMADVSMDE1" Mandatory="No" OrderNumber="210"/>
                <ItemRef ItemOID="IG_ADVS_GSKADaMMDES1.IT_TRT01P_GSKADaMADVSMDE1" Mandatory="Yes" OrderNumber="230"/>
                <ItemRef ItemOID="IG_ADVS_GSKADaMMDES1.IT_TRTSEQP_GSKADaMADVSMDE1" Mandatory="No" OrderNumber="250"/>
                <ItemRef ItemOID="IG_ADVS_GSKADaMMDES1.IT_TRTSEQA_GSKADaMADVSMDE1" Mandatory="No" OrderNumber="270"/>
                <ItemRef ItemOID="IG_ADVS_GSKADaMMDES1.IT_APERIODC_GSKADaMADVSMDE1" Mandatory="No" OrderNumber="300"/>
                <ItemRef ItemOID="IG_ADVS_GSKADaMMDES1.IT_APHASE_GSKADaMADVSMDE1" Mandatory="No"
                         MethodOID="MT_APHASE_GSKADaMADVSMDE1" OrderNumber="310"/>
                <ItemRef ItemOID="IG_ADVS_GSKADaMMDES1.IT_AVISIT_GSKADaMADVSMDE1" KeySequence="4" Mandatory="No"
                         OrderNumber="330"/>
                <ItemRef ItemOID="IG_ADVS_GSKADaMMDES1.IT_ATPTREF_GSKADaMADVSMDE1" Mandatory="No" OrderNumber="350"/>
                <ItemRef ItemOID="IG_ADVS_GSKADaMMDES1.IT_ATPT_GSKADaMADVSMDE1" KeySequence="5" Mandatory="No"
                         OrderNumber="360"/>
                <ItemRef ItemOID="IG_ADVS_GSKADaMMDES1.IT_ASPERC_GSKADaMADVSMDE1" Mandatory="No" OrderNumber="450"/>
                <ItemRef ItemOID="IG_ADVS_GSKADaMMDES1.IT_VSLOC_GSKADaMADVSMDE1" Mandatory="No" OrderNumber="460"/>
                <ItemRef ItemOID="IG_ADVS_GSKADaMMDES1.IT_PARCAT1_GSKADaMADVSMDE1" Mandatory="No" OrderNumber="470"/>
                <ItemRef ItemOID="IG_ADVS_GSKADaMMDES1.IT_PARAMLBL_GSKADaMADVSMDE1" Mandatory="No" OrderNumber="510"/>
                <ItemRef ItemOID="IG_ADVS_GSKADaMMDES1.IT_AVALC_GSKADaMADVSMDE1" Mandatory="No" OrderNumber="520"/>
                <ItemRef ItemOID="IG_ADVS_GSKADaMMDES1.IT_ANRINDCD_GSKADaMADVSMDE1" Mandatory="No"
                         MethodOID="MT_ANRINDCD_GSKADaMADVSMDE1" OrderNumber="560"/>
                <ItemRef ItemOID="IG_ADVS_GSKADaMMDES1.IT_ANRIND_GSKADaMADVSMDE1" Mandatory="No" OrderNumber="570"/>
                <ItemRef ItemOID="IG_ADVS_GSKADaMMDES1.IT_BASEC_GSKADaMADVSMDE1" Mandatory="No" OrderNumber="630"/>
                <ItemRef ItemOID="IG_ADVS_GSKADaMMDES1.IT_B2IND_GSKADaMADVSMDE1" Mandatory="No"
                         MethodOID="MT_B2IND_GSKADaMADVSMDE1" OrderNumber="720"/>
                <ItemRef ItemOID="IG_ADVS_GSKADaMMDES1.IT_SRCDOM_GSKADaMADVSMDE1" Mandatory="No" OrderNumber="890"/>
                <ItemRef ItemOID="IG_ADVS_GSKADaMMDES1.IT_SRCVAR_GSKADaMADVSMDE1" Mandatory="No" OrderNumber="900"/>
                <ItemRef ItemOID="IG_ADVS_GSKADaMMDES1.IT_VISIT_GSKADaMADVSMDE1" Mandatory="No" OrderNumber="920"/>
                <ItemRef ItemOID="IG_ADVS_GSKADaMMDES1.IT_VSDTC_GSKADaMADVSMDE1" Mandatory="No" OrderNumber="420"/>
                <ItemRef ItemOID="IG_ADVS_GSKADaMMDES1.IT_WEIGHTBL_GSKADaMADVSMDE1" Mandatory="No" OrderNumber="50"/>
                <ItemRef ItemOID="IG_ADVS_GSKADaMMDES1.IT_AVAL_GSKADaMADVSMDE1" Mandatory="Yes" OrderNumber="530"/>
                <ItemRef ItemOID="IG_ADVS_GSKADaMMDES1.IT_AGE_GSKADaMADVSMDE1" Mandatory="No" OrderNumber="60"/>
                <ItemRef ItemOID="IG_ADVS_GSKADaMMDES1.IT_TRTPN_GSKADaMADVSMDE1" Mandatory="No" OrderNumber="180"/>
                <ItemRef ItemOID="IG_ADVS_GSKADaMMDES1.IT_TRTAN_GSKADaMADVSMDE1" Mandatory="No" OrderNumber="200"/>
                <ItemRef ItemOID="IG_ADVS_GSKADaMMDES1.IT_TRT01AN_GSKADaMADVSMDE1" Mandatory="No" OrderNumber="220"/>
                <ItemRef ItemOID="IG_ADVS_GSKADaMMDES1.IT_TRT01PN_GSKADaMADVSMDE1" Mandatory="No" OrderNumber="240"/>
                <ItemRef ItemOID="IG_ADVS_GSKADaMMDES1.IT_TRTSEQPN_GSKADaMADVSMDE1" Mandatory="No" OrderNumber="260"/>
                <ItemRef ItemOID="IG_ADVS_GSKADaMMDES1.IT_TRTSEQAN_GSKADaMADVSMDE1" Mandatory="No" OrderNumber="280"/>
                <ItemRef ItemOID="IG_ADVS_GSKADaMMDES1.IT_APERIOD_GSKADaMADVSMDE1" Mandatory="No"
                         MethodOID="MT_APERIOD_GSKADaMADVSMDE1" OrderNumber="290"/>
                <ItemRef ItemOID="IG_ADVS_GSKADaMMDES1.IT_APHASEN_GSKADaMADVSMDE1" Mandatory="No" OrderNumber="320"/>
                <ItemRef ItemOID="IG_ADVS_GSKADaMMDES1.IT_AVISITN_GSKADaMADVSMDE1" Mandatory="No" OrderNumber="340"/>
                <ItemRef ItemOID="IG_ADVS_GSKADaMMDES1.IT_ATPTN_GSKADaMADVSMDE1" Mandatory="No" OrderNumber="370"/>
                <ItemRef ItemOID="IG_ADVS_GSKADaMMDES1.IT_APERADY_GSKADaMADVSMDE1" Mandatory="No"
                         MethodOID="MT_APERADY_GSKADaMADVSMDE1" OrderNumber="380"/>
                <ItemRef ItemOID="IG_ADVS_GSKADaMMDES1.IT_ADT_GSKADaMADVSMDE1" Mandatory="No"
                         MethodOID="MT_ADT_GSKADaMADVSMDE1" OrderNumber="390"/>
                <ItemRef ItemOID="IG_ADVS_GSKADaMMDES1.IT_ATM_GSKADaMADVSMDE1" Mandatory="No"
                         MethodOID="MT_ATM_GSKADaMADVSMDE1" OrderNumber="400"/>
                <ItemRef ItemOID="IG_ADVS_GSKADaMMDES1.IT_ADTM_GSKADaMADVSMDE1" Mandatory="No"
                         MethodOID="MT_ADTM_GSKADaMADVSMDE1" OrderNumber="410"/>
                <ItemRef ItemOID="IG_ADVS_GSKADaMMDES1.IT_ADY_GSKADaMADVSMDE1" Mandatory="No"
                         MethodOID="MT_ADY_GSKADaMADVSMDE1" OrderNumber="430"/>
                <ItemRef ItemOID="IG_ADVS_GSKADaMMDES1.IT_ASPER_GSKADaMADVSMDE1" Mandatory="No"
                         MethodOID="MT_ASPER_GSKADaMADVSMDE1" OrderNumber="440"/>
                <ItemRef ItemOID="IG_ADVS_GSKADaMMDES1.IT_ANRLO_GSKADaMADVSMDE1" Mandatory="No" OrderNumber="540"/>
                <ItemRef ItemOID="IG_ADVS_GSKADaMMDES1.IT_ANRHI_GSKADaMADVSMDE1" Mandatory="No" OrderNumber="550"/>
                <ItemRef ItemOID="IG_ADVS_GSKADaMMDES1.IT_ABLFN_GSKADaMADVSMDE1" Mandatory="No" OrderNumber="590"/>
                <ItemRef ItemOID="IG_ADVS_GSKADaMMDES1.IT_APBLFN_GSKADaMADVSMDE1" Mandatory="No" OrderNumber="610"/>
                <ItemRef ItemOID="IG_ADVS_GSKADaMMDES1.IT_BASE_GSKADaMADVSMDE1" Mandatory="Yes"
                         MethodOID="MT_BASE_GSKADaMADVSMDE1" OrderNumber="620"/>
                <ItemRef ItemOID="IG_ADVS_GSKADaMMDES1.IT_CHG_GSKADaMADVSMDE1" Mandatory="No"
                         MethodOID="MT_CHG_GSKADaMADVSMDE1" OrderNumber="640"/>
                <ItemRef ItemOID="IG_ADVS_GSKADaMMDES1.IT_A1LO_GSKADaMADVSMDE1" Mandatory="No" OrderNumber="650"/>
                <ItemRef ItemOID="IG_ADVS_GSKADaMMDES1.IT_A1HI_GSKADaMADVSMDE1" Mandatory="No" OrderNumber="660"/>
                <ItemRef ItemOID="IG_ADVS_GSKADaMMDES1.IT_SRCSEQ_GSKADaMADVSMDE1" Mandatory="No" OrderNumber="910"/>
                <ItemRef ItemOID="IG_ADVS_GSKADaMMDES1.IT_VISITNUM_GSKADaMADVSMDE1" Mandatory="No" OrderNumber="930"/>
                <ItemRef ItemOID="IG_ADVS_GSKADaMMDES1.IT_ASEQ_GSKADaMADVSMDE1" Mandatory="No"
                         MethodOID="MT_ASEQ_GSKADaMADVSMDE1" OrderNumber="970"/>
                <ItemRef ItemOID="IG_ADVS_GSKADaMMDES1.IT_ENRLFL_GSKADaMADVSMDE1" Mandatory="No" OrderNumber="120"/>
                <ItemRef ItemOID="IG_ADVS_GSKADaMMDES1.IT_FASFL_GSKADaMADVSMDE1" Mandatory="No" OrderNumber="130"/>
                <ItemRef ItemOID="IG_ADVS_GSKADaMMDES1.IT_ITTFL_GSKADaMADVSMDE1" Mandatory="No" OrderNumber="140"/>
                <ItemRef ItemOID="IG_ADVS_GSKADaMMDES1.IT_SAFFL_GSKADaMADVSMDE1" Mandatory="No" OrderNumber="150"/>
                <ItemRef ItemOID="IG_ADVS_GSKADaMMDES1.IT_PPROTFL_GSKADaMADVSMDE1" Mandatory="No" OrderNumber="160"/>
                <ItemRef ItemOID="IG_ADVS_GSKADaMMDES1.IT_SEX_GSKADaMADVSMDE1" Mandatory="No" OrderNumber="70"/>
                <ItemRef ItemOID="IG_ADVS_GSKADaMMDES1.IT_SHIFT2N_GSKADaMADVSMDE1" Mandatory="No"
                         MethodOID="MT_SHIFT2N_GSKADaMADVSMDE1" OrderNumber="840"/>
                <ItemRef ItemOID="IG_ADVS_GSKADaMMDES1.IT_SHIFT1N_GSKADaMADVSMDE1" Mandatory="No"
                         MethodOID="MT_SHIFT1N_GSKADaMADVSMDE1" OrderNumber="820"/>
                <ItemRef ItemOID="IG_ADVS_GSKADaMMDES1.IT_SHIFT3N_GSKADaMADVSMDE1" Mandatory="No"
                         MethodOID="MT_SHIFT3N_GSKADaMADVSMDE1" OrderNumber="860"/>
                <ItemRef ItemOID="IG_ADVS_GSKADaMMDES1.IT_SHIFT4_GSKADaMADVSMDE1" Mandatory="No" OrderNumber="870"/>
                <ItemRef ItemOID="IG_ADVS_GSKADaMMDES1.IT_ARACE_GSKADaMADVSMDE1" Mandatory="No" OrderNumber="90"/>
                <ItemRef ItemOID="IG_ADVS_GSKADaMMDES1.IT_SHIFT3_GSKADaMADVSMDE1" Mandatory="No" OrderNumber="850"/>
                <ItemRef ItemOID="IG_ADVS_GSKADaMMDES1.IT_ACOUNTRY_GSKADaMADVSMDE1" Mandatory="No" OrderNumber="110"/>
                <ItemRef ItemOID="IG_ADVS_GSKADaMMDES1.IT_SHIFT1_GSKADaMADVSMDE1" Mandatory="No" OrderNumber="810"/>
                <ItemRef ItemOID="IG_ADVS_GSKADaMMDES1.IT_SHIFT4N_GSKADaMADVSMDE1" Mandatory="No"
                         MethodOID="MT_SHIFT4N_GSKADaMADVSMDE1" OrderNumber="880"/>
                <ItemRef ItemOID="IG_ADVS_GSKADaMMDES1.IT_DTYPE_GSKADaMADVSMDE1" Mandatory="No" OrderNumber="730"/>
                <ItemRef ItemOID="IG_ADVS_GSKADaMMDES1.IT_CHGCAT1_GSKADaMADVSMDE1" Mandatory="No" OrderNumber="710"/>
                <ItemRef ItemOID="IG_ADVS_GSKADaMMDES1.IT_PARAM_GSKADaMADVSMDE1" KeySequence="3" Mandatory="Yes"
                         OrderNumber="480"/>
                <ItemRef ItemOID="IG_ADVS_GSKADaMMDES1.IT_PARAMCD_GSKADaMADVSMDE1" Mandatory="Yes" OrderNumber="490"/>
                <ItemRef ItemOID="IG_ADVS_GSKADaMMDES1.IT_ATOXGRN_GSKADaMADVSMDE1" Mandatory="No" OrderNumber="750"/>
                <ItemRef ItemOID="IG_ADVS_GSKADaMMDES1.IT_BTOXGRN_GSKADaMADVSMDE1" Mandatory="No" OrderNumber="770"/>
                <ItemRef ItemOID="IG_ADVS_GSKADaMMDES1.IT_A1IND_GSKADaMADVSMDE1" Mandatory="No" OrderNumber="680"/>
                <ItemRef ItemOID="IG_ADVS_GSKADaMMDES1.IT_B1IND_GSKADaMADVSMDE1" Mandatory="No"
                         MethodOID="MT_B1IND_GSKADaMADVSMDE1" OrderNumber="690"/>
                <ItemRef ItemOID="IG_ADVS_GSKADaMMDES1.IT_ABLFL_GSKADaMADVSMDE1" Mandatory="No"
                         MethodOID="MT_ABLFL_GSKADaMADVSMDE1" OrderNumber="580"/>
                <ItemRef ItemOID="IG_ADVS_GSKADaMMDES1.IT_APBLFL_GSKADaMADVSMDE1" Mandatory="No"
                         MethodOID="MT_APBLFL_GSKADaMADVSMDE1" OrderNumber="600"/>
                <ItemRef ItemOID="IG_ADVS_GSKADaMMDES1.IT_ANL61FL_GSKADaMADVSMDE1" Mandatory="No"
                         MethodOID="MT_ANL61FL_GSKADaMADVSMDE1" OrderNumber="780"/>
                <ItemRef ItemOID="IG_ADVS_GSKADaMMDES1.IT_ANL62FL_GSKADaMADVSMDE1" Mandatory="No"
                         MethodOID="MT_ANL62FL_GSKADaMADVSMDE1" OrderNumber="790"/>
                <ItemRef ItemOID="IG_ADVS_GSKADaMMDES1.IT_ANL63FL_GSKADaMADVSMDE1" Mandatory="No"
                         MethodOID="MT_ANL63FL_GSKADaMADVSMDE1" OrderNumber="800"/>
                <ItemRef ItemOID="IG_ADVS_GSKADaMMDES1.IT_ANL71FL_GSKADaMADVSMDE1" Mandatory="No"
                         MethodOID="MT_ANL71FL_GSKADaMADVSMDE1" OrderNumber="940"/>
                <ItemRef ItemOID="IG_ADVS_GSKADaMMDES1.IT_ANL72FL_GSKADaMADVSMDE1" Mandatory="No"
                         MethodOID="MT_ANL72FL_GSKADaMADVSMDE1" OrderNumber="950"/>
                <ItemRef ItemOID="IG_ADVS_GSKADaMMDES1.IT_ANL81FL_GSKADaMADVSMDE1" Mandatory="No"
                         MethodOID="MT_ANL81FL_GSKADaMADVSMDE1" OrderNumber="960"/>
                <ItemRef ItemOID="IG_ADVS_GSKADaMMDES1.IT_ARACEN_GSKADaMADVSMDE1" Mandatory="No" OrderNumber="100"/>
                <ItemRef ItemOID="IG_ADVS_GSKADaMMDES1.IT_SEXN_GSKADaMADVSMDE1" Mandatory="No" OrderNumber="80"/>
                <ItemRef ItemOID="IG_ADVS_GSKADaMMDES1.IT_A1INDCD_GSKADaMADVSMDE1" Mandatory="No"
                         MethodOID="MT_A1INDCD_GSKADaMADVSMDE1" OrderNumber="670"/>
                <ItemRef ItemOID="IG_ADVS_GSKADaMMDES1.IT_CHGCA1CD_GSKADaMADVSMDE1" Mandatory="No"
                         MethodOID="MT_CHGCA1CD_GSKADaMADVSMDE1" OrderNumber="700"/>
                <ItemRef ItemOID="IG_ADVS_GSKADaMMDES1.IT_PARAMN_GSKADaMADVSMDE1" Mandatory="No" OrderNumber="500"/>
                <ItemRef ItemOID="IG_ADVS_GSKADaMMDES1.IT_SHIFT2_GSKADaMADVSMDE1" Mandatory="No" OrderNumber="830"/>
                <ItemRef ItemOID="IG_ADVS_GSKADaMMDES1.IT_ATOXGR_GSKADaMADVSMDE1" Mandatory="No"
                         MethodOID="MT_ATOXGR_GSKADaMADVSMDE1" OrderNumber="740"/>
                <ItemRef ItemOID="IG_ADVS_GSKADaMMDES1.IT_BTOXGR_GSKADaMADVSMDE1" Mandatory="No"
                         MethodOID="MT_BTOXGR_GSKADaMADVSMDE1" OrderNumber="760"/>
                <def:Class Name="BASIC DATA STRUCTURE"/>
            </ItemGroupDef>
            <ItemGroupDef Domain="ADSL" Name="ADSL" OID="IG_ADSL_GSKADaMMDES1" Purpose="Analysis" Repeating="No"
                          def:Structure="One record per subject" mdr:DatePublished="2025-09-17" mdr:Status="Approved">
                <Description>
                    <TranslatedText xml:lang="en"></TranslatedText>
                </Description>
                <ItemRef ItemOID="IG_ADSL_GSKADaMMDES1.IT_STUDYID_GSKADaMADSLMDE1" KeySequence="1" Mandatory="Yes"
                         OrderNumber="10"/>
                <ItemRef ItemOID="IG_ADSL_GSKADaMMDES1.IT_SITEID_GSKADaMADSLMDE1" Mandatory="Yes" OrderNumber="20"/>
                <ItemRef ItemOID="IG_ADSL_GSKADaMMDES1.IT_USUBJID_GSKADaMADSLMDE1" KeySequence="2" Mandatory="Yes"
                         OrderNumber="30"/>
                <ItemRef ItemOID="IG_ADSL_GSKADaMMDES1.IT_SUBJID_GSKADaMADSLMDE1" Mandatory="Yes" OrderNumber="40"/>
                <ItemRef ItemOID="IG_ADSL_GSKADaMMDES1.IT_INVID_GSKADaMADSLMDE1" Mandatory="Yes" OrderNumber="70"/>
                <ItemRef ItemOID="IG_ADSL_GSKADaMMDES1.IT_INVNAM_GSKADaMADSLMDE1" Mandatory="No" OrderNumber="80"/>
                <ItemRef ItemOID="IG_ADSL_GSKADaMMDES1.IT_SITEGR1_GSKADaMADSLMDE1" Mandatory="No" OrderNumber="90"/>
                <ItemRef ItemOID="IG_ADSL_GSKADaMMDES1.IT_RACEGR1_GSKADaMADSLMDE1" Mandatory="No" OrderNumber="200"/>
                <ItemRef ItemOID="IG_ADSL_GSKADaMMDES1.IT_ARM_GSKADaMADSLMDE1" Mandatory="Yes" OrderNumber="490"/>
                <ItemRef ItemOID="IG_ADSL_GSKADaMMDES1.IT_ARMCD_GSKADaMADSLMDE1" Mandatory="No" OrderNumber="500"/>
                <ItemRef ItemOID="IG_ADSL_GSKADaMMDES1.IT_ACTARM_GSKADaMADSLMDE1" Mandatory="No" OrderNumber="510"/>
                <ItemRef ItemOID="IG_ADSL_GSKADaMMDES1.IT_ACTARMCD_GSKADaMADSLMDE1" Mandatory="No" OrderNumber="520"/>
                <ItemRef ItemOID="IG_ADSL_GSKADaMMDES1.IT_TRTSEQP_GSKADaMADSLMDE1" Mandatory="No" OrderNumber="530"/>
                <ItemRef ItemOID="IG_ADSL_GSKADaMMDES1.IT_TRTSEQA_GSKADaMADSLMDE1" Mandatory="No" OrderNumber="550"/>
                <ItemRef ItemOID="IG_ADSL_GSKADaMMDES1.IT_TRT01P_GSKADaMADSLMDE1" Mandatory="Yes" OrderNumber="570"/>
                <ItemRef ItemOID="IG_ADSL_GSKADaMMDES1.IT_TRT01A_GSKADaMADSLMDE1" Mandatory="No" OrderNumber="590"/>
                <ItemRef ItemOID="IG_ADSL_GSKADaMMDES1.IT_TR01PG1_GSKADaMADSLMDE1" Mandatory="No" OrderNumber="610"/>
                <ItemRef ItemOID="IG_ADSL_GSKADaMMDES1.IT_TR01AG1_GSKADaMADSLMDE1" Mandatory="No" OrderNumber="630"/>
                <ItemRef ItemOID="IG_ADSL_GSKADaMMDES1.IT_APHASE1_GSKADaMADSLMDE1" Mandatory="No" OrderNumber="910"/>
                <ItemRef ItemOID="IG_ADSL_GSKADaMMDES1.IT_DTHDTF_GSKADaMADSLMDE1" Mandatory="No"
                         MethodOID="MT_DTHDTF_GSKADaMADSLMDE1" OrderNumber="1040"/>
                <ItemRef ItemOID="IG_ADSL_GSKADaMMDES1.IT_DTHCAUS_GSKADaMADSLMDE1" Mandatory="No" OrderNumber="1050"/>
                <ItemRef ItemOID="IG_ADSL_GSKADaMMDES1.IT_ARACEDET_GSKADaMADSLMDE1" Mandatory="No"
                         MethodOID="MT_ARACEDET_GSKADaMADSLMDE1" OrderNumber="1150"/>
                <ItemRef ItemOID="IG_ADSL_GSKADaMMDES1.IT_VLBLGR1_GSKADaMADSLMDE1" Mandatory="No" OrderNumber="1210"/>
                <ItemRef ItemOID="IG_ADSL_GSKADaMMDES1.IT_VLSCGR1_GSKADaMADSLMDE1" Mandatory="No" OrderNumber="1230"/>
                <ItemRef ItemOID="IG_ADSL_GSKADaMMDES1.IT_CD4BLGR1_GSKADaMADSLMDE1" Mandatory="No" OrderNumber="1320"/>
                <ItemRef ItemOID="IG_ADSL_GSKADaMMDES1.IT_CD4SCGR1_GSKADaMADSLMDE1" Mandatory="No" OrderNumber="1340"/>
                <ItemRef ItemOID="IG_ADSL_GSKADaMMDES1.IT_HIVSB_GSKADaMADSLMDE1" Mandatory="No" OrderNumber="1390"/>
                <ItemRef ItemOID="IG_ADSL_GSKADaMMDES1.IT_HIVSBGR1_GSKADaMADSLMDE1" Mandatory="No" OrderNumber="1400"/>
                <ItemRef ItemOID="IG_ADSL_GSKADaMMDES1.IT_CDCCABL_GSKADaMADSLMDE1" Mandatory="No" OrderNumber="1420"/>
                <ItemRef ItemOID="IG_ADSL_GSKADaMMDES1.IT_HBVBL_GSKADaMADSLMDE1" Mandatory="No"
                         MethodOID="MT_HBVBL_GSKADaMADSLMDE1" OrderNumber="1440"/>
                <ItemRef ItemOID="IG_ADSL_GSKADaMMDES1.IT_HCVBL_GSKADaMADSLMDE1" Mandatory="No"
                         MethodOID="MT_HCVBL_GSKADaMADSLMDE1" OrderNumber="1460"/>
                <ItemRef ItemOID="IG_ADSL_GSKADaMMDES1.IT_HBCVBL_GSKADaMADSLMDE1" Mandatory="No"
                         MethodOID="MT_HBCVBL_GSKADaMADSLMDE1" OrderNumber="1480"/>
                <ItemRef ItemOID="IG_ADSL_GSKADaMMDES1.IT_HIVRK_GSKADaMADSLMDE1" Mandatory="No" OrderNumber="1530"/>
                <ItemRef ItemOID="IG_ADSL_GSKADaMMDES1.IT_HIVRKGR1_GSKADaMADSLMDE1" Mandatory="No" OrderNumber="1550"/>
                <ItemRef ItemOID="IG_ADSL_GSKADaMMDES1.IT_DMBLFL_GSKADaMADSLMDE1" Mandatory="No" OrderNumber="1590"/>
                <ItemRef ItemOID="IG_ADSL_GSKADaMMDES1.IT_HTNBLFL_GSKADaMADSLMDE1" Mandatory="No" OrderNumber="1600"/>
                <ItemRef ItemOID="IG_ADSL_GSKADaMMDES1.IT_TDFBL_GSKADaMADSLMDE1" Mandatory="No" OrderNumber="1610"/>
                <ItemRef ItemOID="IG_ADSL_GSKADaMMDES1.IT_TBBL_GSKADaMADSLMDE1" Mandatory="No" OrderNumber="1620"/>
                <ItemRef ItemOID="IG_ADSL_GSKADaMMDES1.IT_SUSMHIS_GSKADaMADSLMDE1" Mandatory="No" OrderNumber="1630"/>
                <ItemRef ItemOID="IG_ADSL_GSKADaMMDES1.IT_ASTRATUM_GSKADaMADSLMDE1" Mandatory="No"
                         MethodOID="MT_ASTRATUM_GSKADaMADSLMDE1" OrderNumber="1650"/>
                <ItemRef ItemOID="IG_ADSL_GSKADaMMDES1.IT_BMIBLGR1_GSKADaMADSLMDE1" Mandatory="No" OrderNumber="1660"/>
                <ItemRef ItemOID="IG_ADSL_GSKADaMMDES1.IT_OSSBLGR1_GSKADaMADSLMDE1" Mandatory="No" OrderNumber="1680"/>
                <ItemRef ItemOID="IG_ADSL_GSKADaMMDES1.IT_PSSBLGR1_GSKADaMADSLMDE1" Mandatory="No" OrderNumber="1690"/>
                <ItemRef ItemOID="IG_ADSL_GSKADaMMDES1.IT_GSSBLGR1_GSKADaMADSLMDE1" Mandatory="No" OrderNumber="1700"/>
                <ItemRef ItemOID="IG_ADSL_GSKADaMMDES1.IT_STRATA_GSKADaMADSLMDE1" Mandatory="No" OrderNumber="1740"/>
                <ItemRef ItemOID="IG_ADSL_GSKADaMMDES1.IT_REGION1_GSKADaMADSLMDE1" Mandatory="No"
                         MethodOID="MT_REGION1_GSKADaMADSLMDE1" OrderNumber="1750"/>
                <ItemRef ItemOID="IG_ADSL_GSKADaMMDES1.IT_SITEINV_GSKADaMADSLMDE1" Mandatory="No"
                         MethodOID="MT_SITEINV_GSKADaMADSLMDE1" OrderNumber="1770"/>
                <ItemRef ItemOID="IG_ADSL_GSKADaMMDES1.IT_AAGE1U_GSKADaMADSLMDE1" Mandatory="No"
                         MethodOID="MT_AAGE1U_GSKADaMADSLMDE1" OrderNumber="1810"/>
                <ItemRef ItemOID="IG_ADSL_GSKADaMMDES1.IT_AAGE2U_GSKADaMADSLMDE1" Mandatory="No"
                         MethodOID="MT_AAGE2U_GSKADaMADSLMDE1" OrderNumber="1830"/>
                <ItemRef ItemOID="IG_ADSL_GSKADaMMDES1.IT_GESAGEU_GSKADaMADSLMDE1" Mandatory="No" OrderNumber="1850"/>
                <ItemRef ItemOID="IG_ADSL_GSKADaMMDES1.IT_P01S1_GSKADaMADSLMDE1" Mandatory="No" OrderNumber="2150"/>
                <ItemRef ItemOID="IG_ADSL_GSKADaMMDES1.IT_P01S2_GSKADaMADSLMDE1" Mandatory="No" OrderNumber="2160"/>
                <ItemRef ItemOID="IG_ADSL_GSKADaMMDES1.IT_COHORT_GSKADaMADSLMDE1" Mandatory="No" OrderNumber="2170"/>
                <ItemRef ItemOID="IG_ADSL_GSKADaMMDES1.IT_BRTHDTC_GSKADaMADSLMDE1" Mandatory="No" OrderNumber="1780"/>
                <ItemRef ItemOID="IG_ADSL_GSKADaMMDES1.IT_HEIGHTBL_GSKADaMADSLMDE1" Mandatory="No" OrderNumber="1100"/>
                <ItemRef ItemOID="IG_ADSL_GSKADaMMDES1.IT_WEIGHTBL_GSKADaMADSLMDE1" Mandatory="No" OrderNumber="1110"/>
                <ItemRef ItemOID="IG_ADSL_GSKADaMMDES1.IT_BMIBL_GSKADaMADSLMDE1" Mandatory="No" OrderNumber="1120"/>
                <ItemRef ItemOID="IG_ADSL_GSKADaMMDES1.IT_VLL10BL_GSKADaMADSLMDE1" Mandatory="No"
                         MethodOID="MT_VLL10BL_GSKADaMADSLMDE1" OrderNumber="1270"/>
                <ItemRef ItemOID="IG_ADSL_GSKADaMMDES1.IT_VLL10SC_GSKADaMADSLMDE1" Mandatory="No"
                         MethodOID="MT_VLL10SC_GSKADaMADSLMDE1" OrderNumber="1290"/>
                <ItemRef ItemOID="IG_ADSL_GSKADaMMDES1.IT_CD4L10BL_GSKADaMADSLMDE1" Mandatory="No"
                         MethodOID="MT_CD4L10BL_GSKADaMADSLMDE1" OrderNumber="1360"/>
                <ItemRef ItemOID="IG_ADSL_GSKADaMMDES1.IT_CD4PCTBL_GSKADaMADSLMDE1" Mandatory="No"
                         MethodOID="MT_CD4PCTBL_GSKADaMADSLMDE1" OrderNumber="1370"/>
                <ItemRef ItemOID="IG_ADSL_GSKADaMMDES1.IT_CD4CD8BL_GSKADaMADSLMDE1" Mandatory="No"
                         MethodOID="MT_CD4CD8BL_GSKADaMADSLMDE1" OrderNumber="1380"/>
                <ItemRef ItemOID="IG_ADSL_GSKADaMMDES1.IT_SITEGR1N_GSKADaMADSLMDE1" Mandatory="No" OrderNumber="100"/>
                <ItemRef ItemOID="IG_ADSL_GSKADaMMDES1.IT_AGE_GSKADaMADSLMDE1" Mandatory="Yes" OrderNumber="110"/>
                <ItemRef ItemOID="IG_ADSL_GSKADaMMDES1.IT_ETHNICN_GSKADaMADSLMDE1" Mandatory="No" OrderNumber="170"/>
                <ItemRef ItemOID="IG_ADSL_GSKADaMMDES1.IT_RACEN_GSKADaMADSLMDE1" Mandatory="No" OrderNumber="190"/>
                <ItemRef ItemOID="IG_ADSL_GSKADaMMDES1.IT_RACEGR1N_GSKADaMADSLMDE1" Mandatory="No" OrderNumber="210"/>
                <ItemRef ItemOID="IG_ADSL_GSKADaMMDES1.IT_TRTSEQPN_GSKADaMADSLMDE1" Mandatory="No" OrderNumber="540"/>
                <ItemRef ItemOID="IG_ADSL_GSKADaMMDES1.IT_TRTSEQAN_GSKADaMADSLMDE1" Mandatory="No" OrderNumber="560"/>
                <ItemRef ItemOID="IG_ADSL_GSKADaMMDES1.IT_TRT01PN_GSKADaMADSLMDE1" Mandatory="No" OrderNumber="580"/>
                <ItemRef ItemOID="IG_ADSL_GSKADaMMDES1.IT_TRT01AN_GSKADaMADSLMDE1" Mandatory="No" OrderNumber="600"/>
                <ItemRef ItemOID="IG_ADSL_GSKADaMMDES1.IT_TR01PG1N_GSKADaMADSLMDE1" Mandatory="No"
                         MethodOID="MT_TR01PG1N_GSKADaMADSLMDE1" OrderNumber="620"/>
                <ItemRef ItemOID="IG_ADSL_GSKADaMMDES1.IT_TR01AG1N_GSKADaMADSLMDE1" Mandatory="No"
                         MethodOID="MT_TR01AG1N_GSKADaMADSLMDE1" OrderNumber="640"/>
                <ItemRef ItemOID="IG_ADSL_GSKADaMMDES1.IT_TR01SDT_GSKADaMADSLMDE1" Mandatory="No"
                         MethodOID="MT_TR01SDT_GSKADaMADSLMDE1" OrderNumber="650"/>
                <ItemRef ItemOID="IG_ADSL_GSKADaMMDES1.IT_TR01STM_GSKADaMADSLMDE1" Mandatory="No"
                         MethodOID="MT_TR01STM_GSKADaMADSLMDE1" OrderNumber="660"/>
                <ItemRef ItemOID="IG_ADSL_GSKADaMMDES1.IT_TR01SDTM_GSKADaMADSLMDE1" Mandatory="No"
                         MethodOID="MT_TR01SDTM_GSKADaMADSLMDE1" OrderNumber="670"/>
                <ItemRef ItemOID="IG_ADSL_GSKADaMMDES1.IT_TR01EDT_GSKADaMADSLMDE1" Mandatory="No"
                         MethodOID="MT_TR01EDT_GSKADaMADSLMDE1" OrderNumber="700"/>
                <ItemRef ItemOID="IG_ADSL_GSKADaMMDES1.IT_TR01ETM_GSKADaMADSLMDE1" Mandatory="No"
                         MethodOID="MT_TR01ETM_GSKADaMADSLMDE1" OrderNumber="710"/>
                <ItemRef ItemOID="IG_ADSL_GSKADaMMDES1.IT_TR01EDTM_GSKADaMADSLMDE1" Mandatory="No"
                         MethodOID="MT_TR01EDTM_GSKADaMADSLMDE1" OrderNumber="720"/>
                <ItemRef ItemOID="IG_ADSL_GSKADaMMDES1.IT_AP01SDT_GSKADaMADSLMDE1" Mandatory="No"
                         MethodOID="MT_AP01SDT_GSKADaMADSLMDE1" OrderNumber="750"/>
                <ItemRef ItemOID="IG_ADSL_GSKADaMMDES1.IT_AP01STM_GSKADaMADSLMDE1" Mandatory="No"
                         MethodOID="MT_AP01STM_GSKADaMADSLMDE1" OrderNumber="760"/>
                <ItemRef ItemOID="IG_ADSL_GSKADaMMDES1.IT_AP01SDTM_GSKADaMADSLMDE1" Mandatory="No"
                         MethodOID="MT_AP01SDTM_GSKADaMADSLMDE1" OrderNumber="770"/>
                <ItemRef ItemOID="IG_ADSL_GSKADaMMDES1.IT_AP01EDT_GSKADaMADSLMDE1" Mandatory="No"
                         MethodOID="MT_AP01EDT_GSKADaMADSLMDE1" OrderNumber="800"/>
                <ItemRef ItemOID="IG_ADSL_GSKADaMMDES1.IT_AP01ETM_GSKADaMADSLMDE1" Mandatory="No"
                         MethodOID="MT_AP01ETM_GSKADaMADSLMDE1" OrderNumber="810"/>
                <ItemRef ItemOID="IG_ADSL_GSKADaMMDES1.IT_AP01EDTM_GSKADaMADSLMDE1" Mandatory="No"
                         MethodOID="MT_AP01EDTM_GSKADaMADSLMDE1" OrderNumber="820"/>
                <ItemRef ItemOID="IG_ADSL_GSKADaMMDES1.IT_PH1SDT_GSKADaMADSLMDE1" Mandatory="No"
                         MethodOID="MT_PH1SDT_GSKADaMADSLMDE1" OrderNumber="850"/>
                <ItemRef ItemOID="IG_ADSL_GSKADaMMDES1.IT_PH1STM_GSKADaMADSLMDE1" Mandatory="No"
                         MethodOID="MT_PH1STM_GSKADaMADSLMDE1" OrderNumber="860"/>
                <ItemRef ItemOID="IG_ADSL_GSKADaMMDES1.IT_PH1SDTM_GSKADaMADSLMDE1" Mandatory="No"
                         MethodOID="MT_PH1SDTM_GSKADaMADSLMDE1" OrderNumber="870"/>
                <ItemRef ItemOID="IG_ADSL_GSKADaMMDES1.IT_PH1EDT_GSKADaMADSLMDE1" Mandatory="No"
                         MethodOID="MT_PH1EDT_GSKADaMADSLMDE1" OrderNumber="880"/>
                <ItemRef ItemOID="IG_ADSL_GSKADaMMDES1.IT_PH1ETM_GSKADaMADSLMDE1" Mandatory="No"
                         MethodOID="MT_PH1ETM_GSKADaMADSLMDE1" OrderNumber="890"/>
                <ItemRef ItemOID="IG_ADSL_GSKADaMMDES1.IT_PH1EDTM_GSKADaMADSLMDE1" Mandatory="No"
                         MethodOID="MT_PH1EDTM_GSKADaMADSLMDE1" OrderNumber="900"/>
                <ItemRef ItemOID="IG_ADSL_GSKADaMMDES1.IT_RANDDT_GSKADaMADSLMDE1" Mandatory="No"
                         MethodOID="MT_RANDDT_GSKADaMADSLMDE1" OrderNumber="920"/>
                <ItemRef ItemOID="IG_ADSL_GSKADaMMDES1.IT_TRTSDT_GSKADaMADSLMDE1" Mandatory="No"
                         MethodOID="MT_TRTSDT_GSKADaMADSLMDE1" OrderNumber="930"/>
                <ItemRef ItemOID="IG_ADSL_GSKADaMMDES1.IT_TRTSTM_GSKADaMADSLMDE1" Mandatory="No"
                         MethodOID="MT_TRTSTM_GSKADaMADSLMDE1" OrderNumber="940"/>
                <ItemRef ItemOID="IG_ADSL_GSKADaMMDES1.IT_TRTSDTM_GSKADaMADSLMDE1" Mandatory="No"
                         MethodOID="MT_TRTSDTM_GSKADaMADSLMDE1" OrderNumber="950"/>
                <ItemRef ItemOID="IG_ADSL_GSKADaMMDES1.IT_TRTEDT_GSKADaMADSLMDE1" Mandatory="No"
                         MethodOID="MT_TRTEDT_GSKADaMADSLMDE1" OrderNumber="980"/>
                <ItemRef ItemOID="IG_ADSL_GSKADaMMDES1.IT_TRTETM_GSKADaMADSLMDE1" Mandatory="No"
                         MethodOID="MT_TRTETM_GSKADaMADSLMDE1" OrderNumber="990"/>
                <ItemRef ItemOID="IG_ADSL_GSKADaMMDES1.IT_TRTEDTM_GSKADaMADSLMDE1" Mandatory="No"
                         MethodOID="MT_TRTEDTM_GSKADaMADSLMDE1" OrderNumber="1000"/>
                <ItemRef ItemOID="IG_ADSL_GSKADaMMDES1.IT_DTHDT_GSKADaMADSLMDE1" Mandatory="No"
                         MethodOID="MT_DTHDT_GSKADaMADSLMDE1" OrderNumber="1030"/>
                <ItemRef ItemOID="IG_ADSL_GSKADaMMDES1.IT_SCRDT_GSKADaMADSLMDE1" Mandatory="No"
                         MethodOID="MT_SCRDT_GSKADaMADSLMDE1" OrderNumber="1060"/>
                <ItemRef ItemOID="IG_ADSL_GSKADaMMDES1.IT_FSTCTDT_GSKADaMADSLMDE1" Mandatory="No"
                         MethodOID="MT_FSTCTDT_GSKADaMADSLMDE1" OrderNumber="1070"/>
                <ItemRef ItemOID="IG_ADSL_GSKADaMMDES1.IT_LSTCTDT_GSKADaMADSLMDE1" Mandatory="No"
                         MethodOID="MT_LSTCTDT_GSKADaMADSLMDE1" OrderNumber="1080"/>
                <ItemRef ItemOID="IG_ADSL_GSKADaMMDES1.IT_BRTHDT_GSKADaMADSLMDE1" Mandatory="No"
                         MethodOID="MT_BRTHDT_GSKADaMADSLMDE1" OrderNumber="1090"/>
                <ItemRef ItemOID="IG_ADSL_GSKADaMMDES1.IT_VLBL_GSKADaMADSLMDE1" Mandatory="No"
                         MethodOID="MT_VLBL_GSKADaMADSLMDE1" OrderNumber="1170"/>
                <ItemRef ItemOID="IG_ADSL_GSKADaMMDES1.IT_VLSC_GSKADaMADSLMDE1" Mandatory="No"
                         MethodOID="MT_VLSC_GSKADaMADSLMDE1" OrderNumber="1190"/>
                <ItemRef ItemOID="IG_ADSL_GSKADaMMDES1.IT_VLBLG1N_GSKADaMADSLMDE1" Mandatory="No" OrderNumber="1220"/>
                <ItemRef ItemOID="IG_ADSL_GSKADaMMDES1.IT_VLSCG1N_GSKADaMADSLMDE1" Mandatory="No" OrderNumber="1250"/>
                <ItemRef ItemOID="IG_ADSL_GSKADaMMDES1.IT_CD4BL_GSKADaMADSLMDE1" Mandatory="No"
                         MethodOID="MT_CD4BL_GSKADaMADSLMDE1" OrderNumber="1300"/>
                <ItemRef ItemOID="IG_ADSL_GSKADaMMDES1.IT_CD4SC_GSKADaMADSLMDE1" Mandatory="No"
                         MethodOID="MT_CD4SC_GSKADaMADSLMDE1" OrderNumber="1310"/>
                <ItemRef ItemOID="IG_ADSL_GSKADaMMDES1.IT_CD4BLG1N_GSKADaMADSLMDE1" Mandatory="No" OrderNumber="1330"/>
                <ItemRef ItemOID="IG_ADSL_GSKADaMMDES1.IT_CD4SCG1N_GSKADaMADSLMDE1" Mandatory="No" OrderNumber="1350"/>
                <ItemRef ItemOID="IG_ADSL_GSKADaMMDES1.IT_HIVSBG1N_GSKADaMADSLMDE1" Mandatory="No" OrderNumber="1410"/>
                <ItemRef ItemOID="IG_ADSL_GSKADaMMDES1.IT_CDCCABLN_GSKADaMADSLMDE1" Mandatory="No" OrderNumber="1430"/>
                <ItemRef ItemOID="IG_ADSL_GSKADaMMDES1.IT_HBVDT_GSKADaMADSLMDE1" Mandatory="No"
                         MethodOID="MT_HBVDT_GSKADaMADSLMDE1" OrderNumber="1490"/>
                <ItemRef ItemOID="IG_ADSL_GSKADaMMDES1.IT_HBVCODT_GSKADaMADSLMDE1" Mandatory="No"
                         MethodOID="MT_HBVCODT_GSKADaMADSLMDE1" OrderNumber="1500"/>
                <ItemRef ItemOID="IG_ADSL_GSKADaMMDES1.IT_HCVDT_GSKADaMADSLMDE1" Mandatory="No"
                         MethodOID="MT_HCVDT_GSKADaMADSLMDE1" OrderNumber="1510"/>
                <ItemRef ItemOID="IG_ADSL_GSKADaMMDES1.IT_HIVRKN_GSKADaMADSLMDE1" Mandatory="No" OrderNumber="1540"/>
                <ItemRef ItemOID="IG_ADSL_GSKADaMMDES1.IT_HIVRKG1N_GSKADaMADSLMDE1" Mandatory="No" OrderNumber="1560"/>
                <ItemRef ItemOID="IG_ADSL_GSKADaMMDES1.IT_HCVCODT_GSKADaMADSLMDE1" Mandatory="No"
                         MethodOID="MT_HCVCODT_GSKADaMADSLMDE1" OrderNumber="1570"/>
                <ItemRef ItemOID="IG_ADSL_GSKADaMMDES1.IT_SUSMHISN_GSKADaMADSLMDE1" Mandatory="No" OrderNumber="1640"/>
                <ItemRef ItemOID="IG_ADSL_GSKADaMMDES1.IT_BMIBLG1N_GSKADaMADSLMDE1" Mandatory="No" OrderNumber="1670"/>
                <ItemRef ItemOID="IG_ADSL_GSKADaMMDES1.IT_OSSBLG1N_GSKADaMADSLMDE1" Mandatory="No" OrderNumber="1710"/>
                <ItemRef ItemOID="IG_ADSL_GSKADaMMDES1.IT_PSSBLG1N_GSKADaMADSLMDE1" Mandatory="No" OrderNumber="1720"/>
                <ItemRef ItemOID="IG_ADSL_GSKADaMMDES1.IT_GSSBLG1N_GSKADaMADSLMDE1" Mandatory="No" OrderNumber="1730"/>
                <ItemRef ItemOID="IG_ADSL_GSKADaMMDES1.IT_REGION1N_GSKADaMADSLMDE1" Mandatory="No" OrderNumber="1760"/>
                <ItemRef ItemOID="IG_ADSL_GSKADaMMDES1.IT_AAGE1_GSKADaMADSLMDE1" Mandatory="No"
                         MethodOID="MT_AAGE1_GSKADaMADSLMDE1" OrderNumber="1800"/>
                <ItemRef ItemOID="IG_ADSL_GSKADaMMDES1.IT_AAGE2_GSKADaMADSLMDE1" Mandatory="No"
                         MethodOID="MT_AAGE2_GSKADaMADSLMDE1" OrderNumber="1820"/>
                <ItemRef ItemOID="IG_ADSL_GSKADaMMDES1.IT_GESAGE_GSKADaMADSLMDE1" Mandatory="No" OrderNumber="1840"/>
                <ItemRef ItemOID="IG_ADSL_GSKADaMMDES1.IT_RFICDT_GSKADaMADSLMDE1" Mandatory="No"
                         MethodOID="MT_RFICDT_GSKADaMADSLMDE1" OrderNumber="2100"/>
                <ItemRef ItemOID="IG_ADSL_GSKADaMMDES1.IT_RFPENDT_GSKADaMADSLMDE1" Mandatory="Yes"
                         MethodOID="MT_RFPENDT_GSKADaMADSLMDE1" OrderNumber="2110"/>
                <ItemRef ItemOID="IG_ADSL_GSKADaMMDES1.IT_P01S1SDT_GSKADaMADSLMDE1" Mandatory="No" OrderNumber="2130"/>
                <ItemRef ItemOID="IG_ADSL_GSKADaMMDES1.IT_P01S2SDT_GSKADaMADSLMDE1" Mandatory="No" OrderNumber="2140"/>
                <ItemRef ItemOID="IG_ADSL_GSKADaMMDES1.IT_COHORTN_GSKADaMADSLMDE1" Mandatory="No" OrderNumber="2180"/>
                <ItemRef ItemOID="IG_ADSL_GSKADaMMDES1.IT_AGEU_GSKADaMADSLMDE1" Mandatory="Yes" OrderNumber="120"/>
                <ItemRef ItemOID="IG_ADSL_GSKADaMMDES1.IT_COUNTRY_GSKADaMADSLMDE1" Mandatory="Yes" OrderNumber="50"/>
                <ItemRef ItemOID="IG_ADSL_GSKADaMMDES1.IT_ETHNIC_GSKADaMADSLMDE1" Mandatory="Yes" OrderNumber="160"/>
                <ItemRef ItemOID="IG_ADSL_GSKADaMMDES1.IT_FASFL_GSKADaMADSLMDE1" Mandatory="No" OrderNumber="230"/>
                <ItemRef ItemOID="IG_ADSL_GSKADaMMDES1.IT_SAFFL_GSKADaMADSLMDE1" Mandatory="No" OrderNumber="250"/>
                <ItemRef ItemOID="IG_ADSL_GSKADaMMDES1.IT_ITTFL_GSKADaMADSLMDE1" Mandatory="No" OrderNumber="270"/>
                <ItemRef ItemOID="IG_ADSL_GSKADaMMDES1.IT_PPROTFL_GSKADaMADSLMDE1" Mandatory="No" OrderNumber="290"/>
                <ItemRef ItemOID="IG_ADSL_GSKADaMMDES1.IT_COMPLFL_GSKADaMADSLMDE1" Mandatory="No" OrderNumber="310"/>
                <ItemRef ItemOID="IG_ADSL_GSKADaMMDES1.IT_RANDFL_GSKADaMADSLMDE1" Mandatory="No" OrderNumber="330"/>
                <ItemRef ItemOID="IG_ADSL_GSKADaMMDES1.IT_ENRLFL_GSKADaMADSLMDE1" Mandatory="No" OrderNumber="350"/>
                <ItemRef ItemOID="IG_ADSL_GSKADaMMDES1.IT_PKFL_GSKADaMADSLMDE1" Mandatory="No" OrderNumber="390"/>
                <ItemRef ItemOID="IG_ADSL_GSKADaMMDES1.IT_SCRNFL_GSKADaMADSLMDE1" Mandatory="No" OrderNumber="410"/>
                <ItemRef ItemOID="IG_ADSL_GSKADaMMDES1.IT_CHNFL_GSKADaMADSLMDE1" Mandatory="No" OrderNumber="430"/>
                <ItemRef ItemOID="IG_ADSL_GSKADaMMDES1.IT_JPNFL_GSKADaMADSLMDE1" Mandatory="No" OrderNumber="450"/>
                <ItemRef ItemOID="IG_ADSL_GSKADaMMDES1.IT_EAFL_GSKADaMADSLMDE1" Mandatory="No" OrderNumber="470"/>
                <ItemRef ItemOID="IG_ADSL_GSKADaMMDES1.IT_LSEFL_GSKADaMADSLMDE1" Mandatory="No" OrderNumber="1200"/>
                <ItemRef ItemOID="IG_ADSL_GSKADaMMDES1.IT_HBVCOBL_GSKADaMADSLMDE1" Mandatory="No" OrderNumber="1450"/>
                <ItemRef ItemOID="IG_ADSL_GSKADaMMDES1.IT_HCVCOBL_GSKADaMADSLMDE1" Mandatory="No" OrderNumber="1470"/>
                <ItemRef ItemOID="IG_ADSL_GSKADaMMDES1.IT_HIVRKFL_GSKADaMADSLMDE1" Mandatory="No" OrderNumber="1520"/>
                <ItemRef ItemOID="IG_ADSL_GSKADaMMDES1.IT_VITDBLFL_GSKADaMADSLMDE1" Mandatory="No" OrderNumber="1580"/>
                <ItemRef ItemOID="IG_ADSL_GSKADaMMDES1.IT_SSSFL_GSKADaMADSLMDE1" Mandatory="No" OrderNumber="1890"/>
                <ItemRef ItemOID="IG_ADSL_GSKADaMMDES1.IT_SSS01FL_GSKADaMADSLMDE1" Mandatory="No" OrderNumber="1900"/>
                <ItemRef ItemOID="IG_ADSL_GSKADaMMDES1.IT_SSS02FL_GSKADaMADSLMDE1" Mandatory="No" OrderNumber="1910"/>
                <ItemRef ItemOID="IG_ADSL_GSKADaMMDES1.IT_SSUFL_GSKADaMADSLMDE1" Mandatory="No" OrderNumber="1920"/>
                <ItemRef ItemOID="IG_ADSL_GSKADaMMDES1.IT_SSU01FL_GSKADaMADSLMDE1" Mandatory="No" OrderNumber="1930"/>
                <ItemRef ItemOID="IG_ADSL_GSKADaMMDES1.IT_SSU02FL_GSKADaMADSLMDE1" Mandatory="No" OrderNumber="1940"/>
                <ItemRef ItemOID="IG_ADSL_GSKADaMMDES1.IT_ESFL_GSKADaMADSLMDE1" Mandatory="No" OrderNumber="1950"/>
                <ItemRef ItemOID="IG_ADSL_GSKADaMMDES1.IT_ES01FL_GSKADaMADSLMDE1" Mandatory="No" OrderNumber="1960"/>
                <ItemRef ItemOID="IG_ADSL_GSKADaMMDES1.IT_ES02FL_GSKADaMADSLMDE1" Mandatory="No" OrderNumber="1970"/>
                <ItemRef ItemOID="IG_ADSL_GSKADaMMDES1.IT_SSG01FL_GSKADaMADSLMDE1" Mandatory="No" OrderNumber="1980"/>
                <ItemRef ItemOID="IG_ADSL_GSKADaMMDES1.IT_SSG02FL_GSKADaMADSLMDE1" Mandatory="No" OrderNumber="1990"/>
                <ItemRef ItemOID="IG_ADSL_GSKADaMMDES1.IT_SSGFL_GSKADaMADSLMDE1" Mandatory="No" OrderNumber="2000"/>
                <ItemRef ItemOID="IG_ADSL_GSKADaMMDES1.IT_SSL011FL_GSKADaMADSLMDE1" Mandatory="No" OrderNumber="2010"/>
                <ItemRef ItemOID="IG_ADSL_GSKADaMMDES1.IT_SSL012FL_GSKADaMADSLMDE1" Mandatory="No" OrderNumber="2020"/>
                <ItemRef ItemOID="IG_ADSL_GSKADaMMDES1.IT_SSL021FL_GSKADaMADSLMDE1" Mandatory="No" OrderNumber="2030"/>
                <ItemRef ItemOID="IG_ADSL_GSKADaMMDES1.IT_SSL022FL_GSKADaMADSLMDE1" Mandatory="No" OrderNumber="2040"/>
                <ItemRef ItemOID="IG_ADSL_GSKADaMMDES1.IT_SSLFL_GSKADaMADSLMDE1" Mandatory="No" OrderNumber="2050"/>
                <ItemRef ItemOID="IG_ADSL_GSKADaMMDES1.IT_IEFL_GSKADaMADSLMDE1" Mandatory="No" OrderNumber="2060"/>
                <ItemRef ItemOID="IG_ADSL_GSKADaMMDES1.IT_PPS01FL_GSKADaMADSLMDE1" Mandatory="No" OrderNumber="2070"/>
                <ItemRef ItemOID="IG_ADSL_GSKADaMMDES1.IT_SBSET1FL_GSKADaMADSLMDE1" Mandatory="No" OrderNumber="2080"/>
                <ItemRef ItemOID="IG_ADSL_GSKADaMMDES1.IT_SBSET2FL_GSKADaMADSLMDE1" Mandatory="No" OrderNumber="2090"/>
                <ItemRef ItemOID="IG_ADSL_GSKADaMMDES1.IT_RACE_GSKADaMADSLMDE1" Mandatory="Yes" OrderNumber="180"/>
                <ItemRef ItemOID="IG_ADSL_GSKADaMMDES1.IT_SEX_GSKADaMADSLMDE1" Mandatory="Yes" OrderNumber="150"/>
                <ItemRef ItemOID="IG_ADSL_GSKADaMMDES1.IT_ARACE_GSKADaMADSLMDE1" Mandatory="Yes"
                         MethodOID="MT_ARACE_GSKADaMADSLMDE1" OrderNumber="1130"/>
                <ItemRef ItemOID="IG_ADSL_GSKADaMMDES1.IT_ACOUNTRY_GSKADaMADSLMDE1" Mandatory="Yes" OrderNumber="60"/>
                <ItemRef ItemOID="IG_ADSL_GSKADaMMDES1.IT_AGEGR1N_GSKADaMADSLMDE1" Mandatory="No" OrderNumber="140"/>
                <ItemRef ItemOID="IG_ADSL_GSKADaMMDES1.IT_AGEGR2N_GSKADaMADSLMDE1" Mandatory="No" OrderNumber="1870"/>
                <ItemRef ItemOID="IG_ADSL_GSKADaMMDES1.IT_AGEGR2_GSKADaMADSLMDE1" Mandatory="No"
                         MethodOID="MT_AGEGR2_GSKADaMADSLMDE1" OrderNumber="1860"/>
                <ItemRef ItemOID="IG_ADSL_GSKADaMMDES1.IT_TR01SDTF_GSKADaMADSLMDE1" Mandatory="No"
                         MethodOID="MT_TR01SDTF_GSKADaMADSLMDE1" OrderNumber="680"/>
                <ItemRef ItemOID="IG_ADSL_GSKADaMMDES1.IT_TR01EDTF_GSKADaMADSLMDE1" Mandatory="No"
                         MethodOID="MT_TR01EDTF_GSKADaMADSLMDE1" OrderNumber="730"/>
                <ItemRef ItemOID="IG_ADSL_GSKADaMMDES1.IT_AP01SDTF_GSKADaMADSLMDE1" Mandatory="No"
                         MethodOID="MT_AP01SDTF_GSKADaMADSLMDE1" OrderNumber="780"/>
                <ItemRef ItemOID="IG_ADSL_GSKADaMMDES1.IT_AP01EDTF_GSKADaMADSLMDE1" Mandatory="No"
                         MethodOID="MT_AP01EDTF_GSKADaMADSLMDE1" OrderNumber="830"/>
                <ItemRef ItemOID="IG_ADSL_GSKADaMMDES1.IT_TRTSDTF_GSKADaMADSLMDE1" Mandatory="No"
                         MethodOID="MT_TRTSDTF_GSKADaMADSLMDE1" OrderNumber="960"/>
                <ItemRef ItemOID="IG_ADSL_GSKADaMMDES1.IT_TRTEDTF_GSKADaMADSLMDE1" Mandatory="No"
                         MethodOID="MT_TRTEDTF_GSKADaMADSLMDE1" OrderNumber="1010"/>
                <ItemRef ItemOID="IG_ADSL_GSKADaMMDES1.IT_BRTHDTF_GSKADaMADSLMDE1" Mandatory="No"
                         MethodOID="MT_BRTHDTF_GSKADaMADSLMDE1" OrderNumber="1790"/>
                <ItemRef ItemOID="IG_ADSL_GSKADaMMDES1.IT_RFPENDTF_GSKADaMADSLMDE1" Mandatory="No"
                         MethodOID="MT_RFPENDTF_GSKADaMADSLMDE1" OrderNumber="2120"/>
                <ItemRef ItemOID="IG_ADSL_GSKADaMMDES1.IT_FASFN_GSKADaMADSLMDE1" Mandatory="No" OrderNumber="240"/>
                <ItemRef ItemOID="IG_ADSL_GSKADaMMDES1.IT_SAFFN_GSKADaMADSLMDE1" Mandatory="No" OrderNumber="260"/>
                <ItemRef ItemOID="IG_ADSL_GSKADaMMDES1.IT_ITTFN_GSKADaMADSLMDE1" Mandatory="No" OrderNumber="280"/>
                <ItemRef ItemOID="IG_ADSL_GSKADaMMDES1.IT_PPROTFN_GSKADaMADSLMDE1" Mandatory="No" OrderNumber="300"/>
                <ItemRef ItemOID="IG_ADSL_GSKADaMMDES1.IT_COMPLFN_GSKADaMADSLMDE1" Mandatory="No" OrderNumber="320"/>
                <ItemRef ItemOID="IG_ADSL_GSKADaMMDES1.IT_RANDFN_GSKADaMADSLMDE1" Mandatory="No" OrderNumber="340"/>
                <ItemRef ItemOID="IG_ADSL_GSKADaMMDES1.IT_ENRLFN_GSKADaMADSLMDE1" Mandatory="No" OrderNumber="360"/>
                <ItemRef ItemOID="IG_ADSL_GSKADaMMDES1.IT_DTHFN_GSKADaMADSLMDE1" Mandatory="No" OrderNumber="380"/>
                <ItemRef ItemOID="IG_ADSL_GSKADaMMDES1.IT_PKFN_GSKADaMADSLMDE1" Mandatory="No" OrderNumber="400"/>
                <ItemRef ItemOID="IG_ADSL_GSKADaMMDES1.IT_SCRNFN_GSKADaMADSLMDE1" Mandatory="No" OrderNumber="420"/>
                <ItemRef ItemOID="IG_ADSL_GSKADaMMDES1.IT_CHNFN_GSKADaMADSLMDE1" Mandatory="No" OrderNumber="440"/>
                <ItemRef ItemOID="IG_ADSL_GSKADaMMDES1.IT_JPNFN_GSKADaMADSLMDE1" Mandatory="No" OrderNumber="460"/>
                <ItemRef ItemOID="IG_ADSL_GSKADaMMDES1.IT_EAFN_GSKADaMADSLMDE1" Mandatory="No" OrderNumber="480"/>
                <ItemRef ItemOID="IG_ADSL_GSKADaMMDES1.IT_DTHFL_GSKADaMADSLMDE1" Mandatory="No" OrderNumber="370"/>
                <ItemRef ItemOID="IG_ADSL_GSKADaMMDES1.IT_STRADVFL_GSKADaMADSLMDE1" Mandatory="No" OrderNumber="1160"/>
                <ItemRef ItemOID="IG_ADSL_GSKADaMMDES1.IT_TRTDVFL_GSKADaMADSLMDE1" Mandatory="No" OrderNumber="1180"/>
                <ItemRef ItemOID="IG_ADSL_GSKADaMMDES1.IT_DTHWLTF_GSKADaMADSLMDE1" Mandatory="No"
                         MethodOID="MT_DTHWLTF_GSKADaMADSLMDE1" OrderNumber="1240"/>
                <ItemRef ItemOID="IG_ADSL_GSKADaMMDES1.IT_DTHALTF_GSKADaMADSLMDE1" Mandatory="No"
                         MethodOID="MT_DTHALTF_GSKADaMADSLMDE1" OrderNumber="1260"/>
                <ItemRef ItemOID="IG_ADSL_GSKADaMMDES1.IT_DTHWFTF_GSKADaMADSLMDE1" Mandatory="No"
                         MethodOID="MT_DTHWFTF_GSKADaMADSLMDE1" OrderNumber="1280"/>
                <ItemRef ItemOID="IG_ADSL_GSKADaMMDES1.IT_ARACEN_GSKADaMADSLMDE1" Mandatory="No" OrderNumber="1140"/>
                <ItemRef ItemOID="IG_ADSL_GSKADaMMDES1.IT_SEXN_GSKADaMADSLMDE1" Mandatory="No" OrderNumber="1880"/>
                <ItemRef ItemOID="IG_ADSL_GSKADaMMDES1.IT_AGEGR1_GSKADaMADSLMDE1" Mandatory="No" OrderNumber="130"/>
                <ItemRef ItemOID="IG_ADSL_GSKADaMMDES1.IT_TR01STMF_GSKADaMADSLMDE1" Mandatory="No"
                         MethodOID="MT_TR01STMF_GSKADaMADSLMDE1" OrderNumber="690"/>
                <ItemRef ItemOID="IG_ADSL_GSKADaMMDES1.IT_TR01ETMF_GSKADaMADSLMDE1" Mandatory="No"
                         MethodOID="MT_TR01ETMF_GSKADaMADSLMDE1" OrderNumber="740"/>
                <ItemRef ItemOID="IG_ADSL_GSKADaMMDES1.IT_AP01STMF_GSKADaMADSLMDE1" Mandatory="No"
                         MethodOID="MT_AP01STMF_GSKADaMADSLMDE1" OrderNumber="790"/>
                <ItemRef ItemOID="IG_ADSL_GSKADaMMDES1.IT_AP01ETMF_GSKADaMADSLMDE1" Mandatory="No"
                         MethodOID="MT_AP01ETMF_GSKADaMADSLMDE1" OrderNumber="840"/>
                <ItemRef ItemOID="IG_ADSL_GSKADaMMDES1.IT_TRTSTMF_GSKADaMADSLMDE1" Mandatory="No"
                         MethodOID="MT_TRTSTMF_GSKADaMADSLMDE1" OrderNumber="970"/>
                <ItemRef ItemOID="IG_ADSL_GSKADaMMDES1.IT_TRTETMF_GSKADaMADSLMDE1" Mandatory="No"
                         MethodOID="MT_TRTETMF_GSKADaMADSLMDE1" OrderNumber="1020"/>
                <def:Class Name="SUBJECT LEVEL ANALYSIS DATASET"/>
            </ItemGroupDef>
            <ItemGroupDef Domain="ADLB" Name="ADLB" OID="IG_ADLB_GSKADaMMDES1" Purpose="Analysis" Repeating="Yes"
                          def:Structure="One record per subject per parameter per analysis visit, per timepoint and per date"
                          mdr:DatePublished="2025-09-17" mdr:Status="Approved">
                <Description>
                    <TranslatedText xml:lang="en"></TranslatedText>
                </Description>
                <ItemRef ItemOID="IG_ADLB_GSKADaMMDES1.IT_STUDYID_GSKADaMADLBMDE1" KeySequence="2" Mandatory="Yes"
                         OrderNumber="10"/>
                <ItemRef ItemOID="IG_ADLB_GSKADaMMDES1.IT_USUBJID_GSKADaMADLBMDE1" KeySequence="1" Mandatory="Yes"
                         OrderNumber="20"/>
                <ItemRef ItemOID="IG_ADLB_GSKADaMMDES1.IT_SUBJID_GSKADaMADLBMDE1" Mandatory="Yes" OrderNumber="25"/>
                <ItemRef ItemOID="IG_ADLB_GSKADaMMDES1.IT_SITEID_GSKADaMADLBMDE1" Mandatory="Yes" OrderNumber="30"/>
                <ItemRef ItemOID="IG_ADLB_GSKADaMMDES1.IT_TRTP_GSKADaMADLBMDE1" Mandatory="No"
                         MethodOID="MT_TRTP_GSKADaMADLBMDE1" OrderNumber="120"/>
                <ItemRef ItemOID="IG_ADLB_GSKADaMMDES1.IT_TRTA_GSKADaMADLBMDE1" Mandatory="No"
                         MethodOID="MT_TRTA_GSKADaMADLBMDE1" OrderNumber="140"/>
                <ItemRef ItemOID="IG_ADLB_GSKADaMMDES1.IT_TRT01A_GSKADaMADLBMDE1" Mandatory="No" OrderNumber="160"/>
                <ItemRef ItemOID="IG_ADLB_GSKADaMMDES1.IT_TRT01P_GSKADaMADLBMDE1" Mandatory="Yes" OrderNumber="180"/>
                <ItemRef ItemOID="IG_ADLB_GSKADaMMDES1.IT_TRTSEQP_GSKADaMADLBMDE1" Mandatory="No" OrderNumber="200"/>
                <ItemRef ItemOID="IG_ADLB_GSKADaMMDES1.IT_TRTSEQA_GSKADaMADLBMDE1" Mandatory="No" OrderNumber="220"/>
                <ItemRef ItemOID="IG_ADLB_GSKADaMMDES1.IT_APERIODC_GSKADaMADLBMDE1" Mandatory="No" OrderNumber="250"/>
                <ItemRef ItemOID="IG_ADLB_GSKADaMMDES1.IT_APHASE_GSKADaMADLBMDE1" Mandatory="No"
                         MethodOID="MT_APHASE_GSKADaMADLBMDE1" OrderNumber="260"/>
                <ItemRef ItemOID="IG_ADLB_GSKADaMMDES1.IT_VISIT_GSKADaMADLBMDE1" Mandatory="No" OrderNumber="280"/>
                <ItemRef ItemOID="IG_ADLB_GSKADaMMDES1.IT_AVISIT_GSKADaMADLBMDE1" KeySequence="4" Mandatory="No"
                         OrderNumber="300"/>
                <ItemRef ItemOID="IG_ADLB_GSKADaMMDES1.IT_ATPTREF_GSKADaMADLBMDE1" Mandatory="No" OrderNumber="320"/>
                <ItemRef ItemOID="IG_ADLB_GSKADaMMDES1.IT_ATPT_GSKADaMADLBMDE1" KeySequence="5" Mandatory="No"
                         OrderNumber="340"/>
                <ItemRef ItemOID="IG_ADLB_GSKADaMMDES1.IT_PARCAT1_GSKADaMADLBMDE1" Mandatory="No" OrderNumber="400"/>
                <ItemRef ItemOID="IG_ADLB_GSKADaMMDES1.IT_PARAMLBL_GSKADaMADLBMDE1" Mandatory="No" OrderNumber="450"/>
                <ItemRef ItemOID="IG_ADLB_GSKADaMMDES1.IT_AVALC_GSKADaMADLBMDE1" Mandatory="No" OrderNumber="460"/>
                <ItemRef ItemOID="IG_ADLB_GSKADaMMDES1.IT_AVALU_GSKADaMADLBMDE1" Mandatory="No" OrderNumber="480"/>
                <ItemRef ItemOID="IG_ADLB_GSKADaMMDES1.IT_BASEC_GSKADaMADLBMDE1" Mandatory="No" OrderNumber="540"/>
                <ItemRef ItemOID="IG_ADLB_GSKADaMMDES1.IT_ANRIND_GSKADaMADLBMDE1" Mandatory="No" OrderNumber="600"/>
                <ItemRef ItemOID="IG_ADLB_GSKADaMMDES1.IT_BNRIND_GSKADaMADLBMDE1" Mandatory="No" OrderNumber="610"/>
                <ItemRef ItemOID="IG_ADLB_GSKADaMMDES1.IT_SRCDOM_GSKADaMADLBMDE1" Mandatory="No" OrderNumber="750"/>
                <ItemRef ItemOID="IG_ADLB_GSKADaMMDES1.IT_SRCVAR_GSKADaMADLBMDE1" Mandatory="No" OrderNumber="760"/>
                <ItemRef ItemOID="IG_ADLB_GSKADaMMDES1.IT_LBDTC_GSKADaMADLBMDE1" Mandatory="No" OrderNumber="800"/>
                <ItemRef ItemOID="IG_ADLB_GSKADaMMDES1.IT_ASPERC_GSKADaMADLBMDE1" Mandatory="No" OrderNumber="820"/>
                <ItemRef ItemOID="IG_ADLB_GSKADaMMDES1.IT_APBLFL_GSKADaMADLBMDE1" Mandatory="No" OrderNumber="1060"/>
                <ItemRef ItemOID="IG_ADLB_GSKADaMMDES1.IT_ATOXGRL_GSKADaMADLBMDE1" Mandatory="No" OrderNumber="1080"/>
                <ItemRef ItemOID="IG_ADLB_GSKADaMMDES1.IT_ATOXGRH_GSKADaMADLBMDE1" Mandatory="No" OrderNumber="1100"/>
                <ItemRef ItemOID="IG_ADLB_GSKADaMMDES1.IT_BTOXGRL_GSKADaMADLBMDE1" Mandatory="No" OrderNumber="1120"/>
                <ItemRef ItemOID="IG_ADLB_GSKADaMMDES1.IT_BTOXGRH_GSKADaMADLBMDE1" Mandatory="No" OrderNumber="1140"/>
                <ItemRef ItemOID="IG_ADLB_GSKADaMMDES1.IT_ATOXDSCL_GSKADaMADLBMDE1" Mandatory="No" OrderNumber="1160"/>
                <ItemRef ItemOID="IG_ADLB_GSKADaMMDES1.IT_ATOXDSCH_GSKADaMADLBMDE1" Mandatory="No" OrderNumber="1170"/>
                <ItemRef ItemOID="IG_ADLB_GSKADaMMDES1.IT_WEIGHTBL_GSKADaMADLBMDE1" Mandatory="No" OrderNumber="35"/>
                <ItemRef ItemOID="IG_ADLB_GSKADaMMDES1.IT_AVAL_GSKADaMADLBMDE1" Mandatory="No" OrderNumber="470"/>
                <ItemRef ItemOID="IG_ADLB_GSKADaMMDES1.IT_ANRLO_GSKADaMADLBMDE1" Mandatory="No" OrderNumber="560"/>
                <ItemRef ItemOID="IG_ADLB_GSKADaMMDES1.IT_ANRHI_GSKADaMADLBMDE1" Mandatory="No" OrderNumber="570"/>
                <ItemRef ItemOID="IG_ADLB_GSKADaMMDES1.IT_R2ANRLO_GSKADaMADLBMDE1" Mandatory="No"
                         MethodOID="MT_R2ANRLO_GSKADaMADLBMDE1" OrderNumber="580"/>
                <ItemRef ItemOID="IG_ADLB_GSKADaMMDES1.IT_R2ANRHI_GSKADaMADLBMDE1" Mandatory="No"
                         MethodOID="MT_R2ANRHI_GSKADaMADLBMDE1" OrderNumber="590"/>
                <ItemRef ItemOID="IG_ADLB_GSKADaMMDES1.IT_A2LO_GSKADaMADLBMDE1" Mandatory="No" OrderNumber="690"/>
                <ItemRef ItemOID="IG_ADLB_GSKADaMMDES1.IT_A2HI_GSKADaMADLBMDE1" Mandatory="No" OrderNumber="700"/>
                <ItemRef ItemOID="IG_ADLB_GSKADaMMDES1.IT_A91LO_GSKADaMADLBMDE1" Mandatory="No" OrderNumber="860"/>
                <ItemRef ItemOID="IG_ADLB_GSKADaMMDES1.IT_A91HI_GSKADaMADLBMDE1" Mandatory="No" OrderNumber="870"/>
                <ItemRef ItemOID="IG_ADLB_GSKADaMMDES1.IT_A92LO_GSKADaMADLBMDE1" Mandatory="No" OrderNumber="880"/>
                <ItemRef ItemOID="IG_ADLB_GSKADaMMDES1.IT_A92HI_GSKADaMADLBMDE1" Mandatory="No" OrderNumber="890"/>
                <ItemRef ItemOID="IG_ADLB_GSKADaMMDES1.IT_A93LO_GSKADaMADLBMDE1" Mandatory="No" OrderNumber="900"/>
                <ItemRef ItemOID="IG_ADLB_GSKADaMMDES1.IT_A93HI_GSKADaMADLBMDE1" Mandatory="No" OrderNumber="910"/>
                <ItemRef ItemOID="IG_ADLB_GSKADaMMDES1.IT_A94LO_GSKADaMADLBMDE1" Mandatory="No" OrderNumber="920"/>
                <ItemRef ItemOID="IG_ADLB_GSKADaMMDES1.IT_A94HI_GSKADaMADLBMDE1" Mandatory="No" OrderNumber="930"/>
                <ItemRef ItemOID="IG_ADLB_GSKADaMMDES1.IT_AGE_GSKADaMADLBMDE1" Mandatory="No" OrderNumber="40"/>
                <ItemRef ItemOID="IG_ADLB_GSKADaMMDES1.IT_TRTPN_GSKADaMADLBMDE1" Mandatory="No" OrderNumber="130"/>
                <ItemRef ItemOID="IG_ADLB_GSKADaMMDES1.IT_TRTAN_GSKADaMADLBMDE1" Mandatory="No" OrderNumber="150"/>
                <ItemRef ItemOID="IG_ADLB_GSKADaMMDES1.IT_TRT01AN_GSKADaMADLBMDE1" Mandatory="No" OrderNumber="170"/>
                <ItemRef ItemOID="IG_ADLB_GSKADaMMDES1.IT_TRT01PN_GSKADaMADLBMDE1" Mandatory="No" OrderNumber="190"/>
                <ItemRef ItemOID="IG_ADLB_GSKADaMMDES1.IT_TRTSEQPN_GSKADaMADLBMDE1" Mandatory="No" OrderNumber="210"/>
                <ItemRef ItemOID="IG_ADLB_GSKADaMMDES1.IT_TRTSEQAN_GSKADaMADLBMDE1" Mandatory="No" OrderNumber="230"/>
                <ItemRef ItemOID="IG_ADLB_GSKADaMMDES1.IT_APERIOD_GSKADaMADLBMDE1" Mandatory="No"
                         MethodOID="MT_APERIOD_GSKADaMADLBMDE1" OrderNumber="240"/>
                <ItemRef ItemOID="IG_ADLB_GSKADaMMDES1.IT_APHASEN_GSKADaMADLBMDE1" Mandatory="No" OrderNumber="270"/>
                <ItemRef ItemOID="IG_ADLB_GSKADaMMDES1.IT_VISITNUM_GSKADaMADLBMDE1" Mandatory="No" OrderNumber="290"/>
                <ItemRef ItemOID="IG_ADLB_GSKADaMMDES1.IT_AVISITN_GSKADaMADLBMDE1" Mandatory="No" OrderNumber="310"/>
                <ItemRef ItemOID="IG_ADLB_GSKADaMMDES1.IT_ATPTN_GSKADaMADLBMDE1" Mandatory="No" OrderNumber="330"/>
                <ItemRef ItemOID="IG_ADLB_GSKADaMMDES1.IT_APERADY_GSKADaMADLBMDE1" Mandatory="No"
                         MethodOID="MT_APERADY_GSKADaMADLBMDE1" OrderNumber="350"/>
                <ItemRef ItemOID="IG_ADLB_GSKADaMMDES1.IT_ADT_GSKADaMADLBMDE1" KeySequence="6" Mandatory="No"
                         MethodOID="MT_ADT_GSKADaMADLBMDE1" OrderNumber="360"/>
                <ItemRef ItemOID="IG_ADLB_GSKADaMMDES1.IT_ATM_GSKADaMADLBMDE1" Mandatory="No"
                         MethodOID="MT_ATM_GSKADaMADLBMDE1" OrderNumber="370"/>
                <ItemRef ItemOID="IG_ADLB_GSKADaMMDES1.IT_ADTM_GSKADaMADLBMDE1" Mandatory="No"
                         MethodOID="MT_ADTM_GSKADaMADLBMDE1" OrderNumber="380"/>
                <ItemRef ItemOID="IG_ADLB_GSKADaMMDES1.IT_ADY_GSKADaMADLBMDE1" Mandatory="No"
                         MethodOID="MT_ADY_GSKADaMADLBMDE1" OrderNumber="390"/>
                <ItemRef ItemOID="IG_ADLB_GSKADaMMDES1.IT_PARCAT1N_GSKADaMADLBMDE1" Mandatory="No" OrderNumber="410"/>
                <ItemRef ItemOID="IG_ADLB_GSKADaMMDES1.IT_BASE_GSKADaMADLBMDE1" Mandatory="No" OrderNumber="530"/>
                <ItemRef ItemOID="IG_ADLB_GSKADaMMDES1.IT_CHG_GSKADaMADLBMDE1" Mandatory="No"
                         MethodOID="MT_CHG_GSKADaMADLBMDE1" OrderNumber="550"/>
                <ItemRef ItemOID="IG_ADLB_GSKADaMMDES1.IT_ANRINDN_GSKADaMADLBMDE1" Mandatory="No" OrderNumber="620"/>
                <ItemRef ItemOID="IG_ADLB_GSKADaMMDES1.IT_BNRINDN_GSKADaMADLBMDE1" Mandatory="No" OrderNumber="630"/>
                <ItemRef ItemOID="IG_ADLB_GSKADaMMDES1.IT_A1LO_GSKADaMADLBMDE1" Mandatory="No" OrderNumber="640"/>
                <ItemRef ItemOID="IG_ADLB_GSKADaMMDES1.IT_A1HI_GSKADaMADLBMDE1" Mandatory="No" OrderNumber="650"/>
                <ItemRef ItemOID="IG_ADLB_GSKADaMMDES1.IT_PCHG_GSKADaMADLBMDE1" Mandatory="No"
                         MethodOID="MT_PCHG_GSKADaMADLBMDE1" OrderNumber="740"/>
                <ItemRef ItemOID="IG_ADLB_GSKADaMMDES1.IT_SRCSEQ_GSKADaMADLBMDE1" Mandatory="No" OrderNumber="770"/>
                <ItemRef ItemOID="IG_ADLB_GSKADaMMDES1.IT_LBSEQ_GSKADaMADLBMDE1" Mandatory="No" OrderNumber="780"/>
                <ItemRef ItemOID="IG_ADLB_GSKADaMMDES1.IT_ASEQ_GSKADaMADLBMDE1" Mandatory="No"
                         MethodOID="MT_ASEQ_GSKADaMADLBMDE1" OrderNumber="790"/>
                <ItemRef ItemOID="IG_ADLB_GSKADaMMDES1.IT_ASPER_GSKADaMADLBMDE1" Mandatory="No"
                         MethodOID="MT_ASPER_GSKADaMADLBMDE1" OrderNumber="810"/>
                <ItemRef ItemOID="IG_ADLB_GSKADaMMDES1.IT_APBLFLN_GSKADaMADLBMDE1" Mandatory="No" OrderNumber="1070"/>
                <ItemRef ItemOID="IG_ADLB_GSKADaMMDES1.IT_ATOXGRLN_GSKADaMADLBMDE1" Mandatory="No" OrderNumber="1090"/>
                <ItemRef ItemOID="IG_ADLB_GSKADaMMDES1.IT_ATOXGRHN_GSKADaMADLBMDE1" Mandatory="No" OrderNumber="1110"/>
                <ItemRef ItemOID="IG_ADLB_GSKADaMMDES1.IT_BTOXGRLN_GSKADaMADLBMDE1" Mandatory="No" OrderNumber="1130"/>
                <ItemRef ItemOID="IG_ADLB_GSKADaMMDES1.IT_BTOXGRHN_GSKADaMADLBMDE1" Mandatory="No" OrderNumber="1150"/>
                <ItemRef ItemOID="IG_ADLB_GSKADaMMDES1.IT_ENRLFL_GSKADaMADLBMDE1" Mandatory="No" OrderNumber="75"/>
                <ItemRef ItemOID="IG_ADLB_GSKADaMMDES1.IT_FASFL_GSKADaMADLBMDE1" Mandatory="No" OrderNumber="80"/>
                <ItemRef ItemOID="IG_ADLB_GSKADaMMDES1.IT_ITTFL_GSKADaMADLBMDE1" Mandatory="No" OrderNumber="90"/>
                <ItemRef ItemOID="IG_ADLB_GSKADaMMDES1.IT_SAFFL_GSKADaMADLBMDE1" Mandatory="No" OrderNumber="100"/>
                <ItemRef ItemOID="IG_ADLB_GSKADaMMDES1.IT_PPROTFL_GSKADaMADLBMDE1" Mandatory="No" OrderNumber="110"/>
                <ItemRef ItemOID="IG_ADLB_GSKADaMMDES1.IT_SEX_GSKADaMADLBMDE1" Mandatory="No" OrderNumber="50"/>
                <ItemRef ItemOID="IG_ADLB_GSKADaMMDES1.IT_ARACE_GSKADaMADLBMDE1" Mandatory="No" OrderNumber="60"/>
                <ItemRef ItemOID="IG_ADLB_GSKADaMMDES1.IT_ACOUNTRY_GSKADaMADLBMDE1" Mandatory="No" OrderNumber="70"/>
                <ItemRef ItemOID="IG_ADLB_GSKADaMMDES1.IT_DTYPE_GSKADaMADLBMDE1" Mandatory="No" OrderNumber="490"/>
                <ItemRef ItemOID="IG_ADLB_GSKADaMMDES1.IT_CHGCAT1_GSKADaMADLBMDE1" Mandatory="No" OrderNumber="710"/>
                <ItemRef ItemOID="IG_ADLB_GSKADaMMDES1.IT_SHIFT1_GSKADaMADLBMDE1" Mandatory="No"
                         MethodOID="MT_SHIFT1_GSKADaMADLBMDE1" OrderNumber="840"/>
                <ItemRef ItemOID="IG_ADLB_GSKADaMMDES1.IT_PARAM_GSKADaMADLBMDE1" Mandatory="Yes" OrderNumber="420"/>
                <ItemRef ItemOID="IG_ADLB_GSKADaMMDES1.IT_PARAMCD_GSKADaMADLBMDE1" KeySequence="3" Mandatory="Yes"
                         OrderNumber="440"/>
                <ItemRef ItemOID="IG_ADLB_GSKADaMMDES1.IT_PARAMN_GSKADaMADLBMDE1" Mandatory="No" OrderNumber="430"/>
                <ItemRef ItemOID="IG_ADLB_GSKADaMMDES1.IT_SHIFT2_GSKADaMADLBMDE1" Mandatory="No"
                         MethodOID="MT_SHIFT2_GSKADaMADLBMDE1" OrderNumber="940"/>
                <ItemRef ItemOID="IG_ADLB_GSKADaMMDES1.IT_SHIFT4_GSKADaMADLBMDE1" Mandatory="No"
                         MethodOID="MT_SHIFT4_GSKADaMADLBMDE1" OrderNumber="980"/>
                <ItemRef ItemOID="IG_ADLB_GSKADaMMDES1.IT_SHIFT5_GSKADaMADLBMDE1" Mandatory="No"
                         MethodOID="MT_SHIFT5_GSKADaMADLBMDE1" OrderNumber="1000"/>
                <ItemRef ItemOID="IG_ADLB_GSKADaMMDES1.IT_SHIFT2N_GSKADaMADLBMDE1" Mandatory="No" OrderNumber="950"/>
                <ItemRef ItemOID="IG_ADLB_GSKADaMMDES1.IT_SHIFT4N_GSKADaMADLBMDE1" Mandatory="No" OrderNumber="990"/>
                <ItemRef ItemOID="IG_ADLB_GSKADaMMDES1.IT_SHIFT5N_GSKADaMADLBMDE1" Mandatory="No" OrderNumber="1010"/>
                <ItemRef ItemOID="IG_ADLB_GSKADaMMDES1.IT_SHIFT3_GSKADaMADLBMDE1" Mandatory="No"
                         MethodOID="MT_SHIFT3_GSKADaMADLBMDE1" OrderNumber="960"/>
                <ItemRef ItemOID="IG_ADLB_GSKADaMMDES1.IT_B2IND_GSKADaMADLBMDE1" Mandatory="No" OrderNumber="730"/>
                <ItemRef ItemOID="IG_ADLB_GSKADaMMDES1.IT_SHIFT1N_GSKADaMADLBMDE1" Mandatory="No" OrderNumber="850"/>
                <ItemRef ItemOID="IG_ADLB_GSKADaMMDES1.IT_SHIFT3N_GSKADaMADLBMDE1" Mandatory="No" OrderNumber="970"/>
                <ItemRef ItemOID="IG_ADLB_GSKADaMMDES1.IT_BTOXGRN_GSKADaMADLBMDE1" Mandatory="No" OrderNumber="1030"/>
                <ItemRef ItemOID="IG_ADLB_GSKADaMMDES1.IT_ATOXGRN_GSKADaMADLBMDE1" Mandatory="No"
                         MethodOID="MT_ATOXGRN_GSKADaMADLBMDE1" OrderNumber="1050"/>
                <ItemRef ItemOID="IG_ADLB_GSKADaMMDES1.IT_A1IND_GSKADaMADLBMDE1" Mandatory="No" OrderNumber="670"/>
                <ItemRef ItemOID="IG_ADLB_GSKADaMMDES1.IT_B1IND_GSKADaMADLBMDE1" Mandatory="No" OrderNumber="680"/>
                <ItemRef ItemOID="IG_ADLB_GSKADaMMDES1.IT_ANL01FL_GSKADaMADLBMDE1" Mandatory="No" OrderNumber="500"/>
                <ItemRef ItemOID="IG_ADLB_GSKADaMMDES1.IT_ANL02FL_GSKADaMADLBMDE1" Mandatory="No" OrderNumber="510"/>
                <ItemRef ItemOID="IG_ADLB_GSKADaMMDES1.IT_ABLFL_GSKADaMADLBMDE1" Mandatory="No" OrderNumber="520"/>
                <ItemRef ItemOID="IG_ADLB_GSKADaMMDES1.IT_EVLLBFL_GSKADaMADLBMDE1" Mandatory="No" OrderNumber="830"/>
                <ItemRef ItemOID="IG_ADLB_GSKADaMMDES1.IT_ANL61FL_GSKADaMADLBMDE1" Mandatory="No"
                         MethodOID="MT_ANL61FL_GSKADaMADLBMDE1" OrderNumber="1180"/>
                <ItemRef ItemOID="IG_ADLB_GSKADaMMDES1.IT_ANL62FL_GSKADaMADLBMDE1" Mandatory="No"
                         MethodOID="MT_ANL62FL_GSKADaMADLBMDE1" OrderNumber="1190"/>
                <ItemRef ItemOID="IG_ADLB_GSKADaMMDES1.IT_ANL63FL_GSKADaMADLBMDE1" Mandatory="No"
                         MethodOID="MT_ANL63FL_GSKADaMADLBMDE1" OrderNumber="1200"/>
                <ItemRef ItemOID="IG_ADLB_GSKADaMMDES1.IT_ANL71FL_GSKADaMADLBMDE1" Mandatory="No" OrderNumber="1210"/>
                <ItemRef ItemOID="IG_ADLB_GSKADaMMDES1.IT_ANL72FL_GSKADaMADLBMDE1" Mandatory="No" OrderNumber="1220"/>
                <ItemRef ItemOID="IG_ADLB_GSKADaMMDES1.IT_ANL81FL_GSKADaMADLBMDE1" Mandatory="No"
                         MethodOID="MT_ANL81FL_GSKADaMADLBMDE1" OrderNumber="1230"/>
                <ItemRef ItemOID="IG_ADLB_GSKADaMMDES1.IT_ANL70FL_GSKADaMADLBMDE1" Mandatory="No" OrderNumber="1240"/>
                <ItemRef ItemOID="IG_ADLB_GSKADaMMDES1.IT_ANL73FL_GSKADaMADLBMDE1" Mandatory="No" OrderNumber="1250"/>
                <ItemRef ItemOID="IG_ADLB_GSKADaMMDES1.IT_ARACEN_GSKADaMADLBMDE1" Mandatory="No" OrderNumber="65"/>
                <ItemRef ItemOID="IG_ADLB_GSKADaMMDES1.IT_SEXN_GSKADaMADLBMDE1" Mandatory="No" OrderNumber="55"/>
                <ItemRef ItemOID="IG_ADLB_GSKADaMMDES1.IT_A1INDCD_GSKADaMADLBMDE1" Mandatory="No"
                         MethodOID="MT_A1INDCD_GSKADaMADLBMDE1" OrderNumber="660"/>
                <ItemRef ItemOID="IG_ADLB_GSKADaMMDES1.IT_CHGCA1CD_GSKADaMADLBMDE1" Mandatory="No"
                         MethodOID="MT_CHGCA1CD_GSKADaMADLBMDE1" OrderNumber="720"/>
                <ItemRef ItemOID="IG_ADLB_GSKADaMMDES1.IT_BTOXGR_GSKADaMADLBMDE1" Mandatory="No" OrderNumber="1020"/>
                <ItemRef ItemOID="IG_ADLB_GSKADaMMDES1.IT_ATOXGR_GSKADaMADLBMDE1" Mandatory="No"
                         MethodOID="MT_ATOXGR_GSKADaMADLBMDE1" OrderNumber="1040"/>
                <def:Class Name="BASIC DATA STRUCTURE"/>
            </ItemGroupDef>
            <ItemGroupDef Domain="ADAE" Name="ADAE" OID="IG_ADAE_GSKADaMMDES1" Purpose="Analysis" Repeating="Yes"
                          def:Structure="One record per subject per each adverse event recorded in SDTM AE domain"
                          mdr:DatePublished="2025-09-17" mdr:Status="Approved">
                <Description>
                    <TranslatedText xml:lang="en"></TranslatedText>
                </Description>
                <ItemRef ItemOID="IG_ADAE_GSKADaMMDES1.IT_USUBJID_GSKADaMADAEMDE1" KeySequence="1" Mandatory="Yes"
                         OrderNumber="10"/>
                <ItemRef ItemOID="IG_ADAE_GSKADaMMDES1.IT_STUDYID_GSKADaMADAEMDE1" KeySequence="2" Mandatory="Yes"
                         OrderNumber="20"/>
                <ItemRef ItemOID="IG_ADAE_GSKADaMMDES1.IT_SUBJID_GSKADaMADAEMDE1" Mandatory="Yes" OrderNumber="25"/>
                <ItemRef ItemOID="IG_ADAE_GSKADaMMDES1.IT_SITEID_GSKADaMADAEMDE1" Mandatory="Yes" OrderNumber="30"/>
                <ItemRef ItemOID="IG_ADAE_GSKADaMMDES1.IT_AAGE9U_GSKADaMADAEMDE1" Mandatory="No"
                         MethodOID="MT_AAGE9U_GSKADaMADAEMDE1" OrderNumber="42"/>
                <ItemRef ItemOID="IG_ADAE_GSKADaMMDES1.IT_TRTP_GSKADaMADAEMDE1" Mandatory="No"
                         MethodOID="MT_TRTP_GSKADaMADAEMDE1" OrderNumber="120"/>
                <ItemRef ItemOID="IG_ADAE_GSKADaMMDES1.IT_AECAT_GSKADaMADAEMDE1" Mandatory="No" OrderNumber="129"/>
                <ItemRef ItemOID="IG_ADAE_GSKADaMMDES1.IT_AESITE_GSKADaMADAEMDE1" Mandatory="No"
                         MethodOID="MT_AESITE_GSKADaMADAEMDE1" OrderNumber="135"/>
                <ItemRef ItemOID="IG_ADAE_GSKADaMMDES1.IT_ASITE_GSKADaMADAEMDE1" Mandatory="No"
                         MethodOID="MT_ASITE_GSKADaMADAEMDE1" OrderNumber="139"/>
                <ItemRef ItemOID="IG_ADAE_GSKADaMMDES1.IT_TRTA_GSKADaMADAEMDE1" Mandatory="No" OrderNumber="140"/>
                <ItemRef ItemOID="IG_ADAE_GSKADaMMDES1.IT_AEPCIND_GSKADaMADAEMDE1" Mandatory="No"
                         MethodOID="MT_AEPCIND_GSKADaMADAEMDE1" OrderNumber="141"/>
                <ItemRef ItemOID="IG_ADAE_GSKADaMMDES1.IT_AERDGCD_GSKADaMADAEMDE1" Mandatory="No"
                         MethodOID="MT_AERDGCD_GSKADaMADAEMDE1" OrderNumber="142"/>
                <ItemRef ItemOID="IG_ADAE_GSKADaMMDES1.IT_AEPST30M_GSKADaMADAEMDE1" Mandatory="No"
                         MethodOID="MT_AEPST30M_GSKADaMADAEMDE1" OrderNumber="143"/>
                <ItemRef ItemOID="IG_ADAE_GSKADaMMDES1.IT_AEPIMD_GSKADaMADAEMDE1" Mandatory="No"
                         MethodOID="MT_AEPIMD_GSKADaMADAEMDE1" OrderNumber="144"/>
                <ItemRef ItemOID="IG_ADAE_GSKADaMMDES1.IT_AESI_GSKADaMADAEMDE1" Mandatory="No"
                         MethodOID="MT_AESI_GSKADaMADAEMDE1" OrderNumber="145"/>
                <ItemRef ItemOID="IG_ADAE_GSKADaMMDES1.IT_APERIODC_GSKADaMADAEMDE1" Mandatory="No" OrderNumber="147"/>
                <ItemRef ItemOID="IG_ADAE_GSKADaMMDES1.IT_AEMEDTYP_GSKADaMADAEMDE1" Mandatory="No"
                         MethodOID="MT_AEMEDTYP_GSKADaMADAEMDE1" OrderNumber="150"/>
                <ItemRef ItemOID="IG_ADAE_GSKADaMMDES1.IT_ASPERC_GSKADaMADAEMDE1" Mandatory="No" OrderNumber="151"/>
                <ItemRef ItemOID="IG_ADAE_GSKADaMMDES1.IT_AAEACNOT_GSKADaMADAEMDE1" Mandatory="No"
                         MethodOID="MT_AAEACNOT_GSKADaMADAEMDE1" OrderNumber="152"/>
                <ItemRef ItemOID="IG_ADAE_GSKADaMMDES1.IT_ATPT_GSKADaMADAEMDE1" Mandatory="No" OrderNumber="153"/>
                <ItemRef ItemOID="IG_ADAE_GSKADaMMDES1.IT_ASPDOSE_GSKADaMADAEMDE1" Mandatory="No"
                         MethodOID="MT_ASPDOSE_GSKADaMADAEMDE1" OrderNumber="154"/>
                <ItemRef ItemOID="IG_ADAE_GSKADaMMDES1.IT_TRT01A_GSKADaMADAEMDE1" Mandatory="No" OrderNumber="160"/>
                <ItemRef ItemOID="IG_ADAE_GSKADaMMDES1.IT_AESTRTPT_GSKADaMADAEMDE1" Mandatory="No" OrderNumber="162"/>
                <ItemRef ItemOID="IG_ADAE_GSKADaMMDES1.IT_AESTTPT_GSKADaMADAEMDE1" Mandatory="No" OrderNumber="163"/>
                <ItemRef ItemOID="IG_ADAE_GSKADaMMDES1.IT_TRT01P_GSKADaMADAEMDE1" Mandatory="Yes" OrderNumber="180"/>
                <ItemRef ItemOID="IG_ADAE_GSKADaMMDES1.IT_AAEACN_GSKADaMADAEMDE1" Mandatory="No"
                         MethodOID="MT_AAEACN_GSKADaMADAEMDE1" OrderNumber="181"/>
                <ItemRef ItemOID="IG_ADAE_GSKADaMMDES1.IT_AECREAS_GSKADaMADAEMDE1" Mandatory="No"
                         MethodOID="MT_AECREAS_GSKADaMADAEMDE1" OrderNumber="182"/>
                <ItemRef ItemOID="IG_ADAE_GSKADaMMDES1.IT_AECREAVS_GSKADaMADAEMDE1" Mandatory="No"
                         MethodOID="MT_AECREAVS_GSKADaMADAEMDE1" OrderNumber="183"/>
                <ItemRef ItemOID="IG_ADAE_GSKADaMMDES1.IT_AAEACT_GSKADaMADAEMDE1" Mandatory="No"
                         MethodOID="MT_AAEACT_GSKADaMADAEMDE1" OrderNumber="184"/>
                <ItemRef ItemOID="IG_ADAE_GSKADaMMDES1.IT_APIMD_GSKADaMADAEMDE1" Mandatory="No"
                         MethodOID="MT_APIMD_GSKADaMADAEMDE1" OrderNumber="186"/>
                <ItemRef ItemOID="IG_ADAE_GSKADaMMDES1.IT_APIMDSRC_GSKADaMADAEMDE1" Mandatory="No"
                         MethodOID="MT_APIMDSRC_GSKADaMADAEMDE1" OrderNumber="187"/>
                <ItemRef ItemOID="IG_ADAE_GSKADaMMDES1.IT_TRTSEQP_GSKADaMADAEMDE1" Mandatory="No" OrderNumber="200"/>
                <ItemRef ItemOID="IG_ADAE_GSKADaMMDES1.IT_ILIFL_GSKADaMADAEMDE1" Mandatory="No" OrderNumber="201"/>
                <ItemRef ItemOID="IG_ADAE_GSKADaMMDES1.IT_TRTSEQA_GSKADaMADAEMDE1" Mandatory="No" OrderNumber="220"/>
                <ItemRef ItemOID="IG_ADAE_GSKADaMMDES1.IT_ANL01FL_GSKADaMADAEMDE1" Mandatory="Yes"
                         MethodOID="MT_ANL01FL_GSKADaMADAEMDE1" OrderNumber="223"/>
                <ItemRef ItemOID="IG_ADAE_GSKADaMMDES1.IT_TPERIODC_GSKADaMADAEMDE1" Mandatory="No" OrderNumber="250"/>
                <ItemRef ItemOID="IG_ADAE_GSKADaMMDES1.IT_APHASE_GSKADaMADAEMDE1" Mandatory="No"
                         MethodOID="MT_APHASE_GSKADaMADAEMDE1" OrderNumber="260"/>
                <ItemRef ItemOID="IG_ADAE_GSKADaMMDES1.IT_AETERM_GSKADaMADAEMDE1" Mandatory="Yes" OrderNumber="460"/>
                <ItemRef ItemOID="IG_ADAE_GSKADaMMDES1.IT_AEMODIFY_GSKADaMADAEMDE1" Mandatory="No" OrderNumber="470"/>
                <ItemRef ItemOID="IG_ADAE_GSKADaMMDES1.IT_AEBODL_GSKADaMADAEMDE1" Mandatory="No"
                         MethodOID="MT_AEBODL_GSKADaMADAEMDE1" OrderNumber="491"/>
                <ItemRef ItemOID="IG_ADAE_GSKADaMMDES1.IT_ADURU_GSKADaMADAEMDE1" Mandatory="Yes"
                         MethodOID="MT_ADURU_GSKADaMADAEMDE1" OrderNumber="610"/>
                <ItemRef ItemOID="IG_ADAE_GSKADaMMDES1.IT_ADURC_GSKADaMADAEMDE1" Mandatory="Yes"
                         MethodOID="MT_ADURC_GSKADaMADAEMDE1" OrderNumber="620"/>
                <ItemRef ItemOID="IG_ADAE_GSKADaMMDES1.IT_HOSPFL_GSKADaMADAEMDE1" Mandatory="No" OrderNumber="725"/>
                <ItemRef ItemOID="IG_ADAE_GSKADaMMDES1.IT_AEREFID_GSKADaMADAEMDE1" Mandatory="No" OrderNumber="730"/>
                <ItemRef ItemOID="IG_ADAE_GSKADaMMDES1.IT_AEACNOTH_GSKADaMADAEMDE1" Mandatory="No" OrderNumber="740"/>
                <ItemRef ItemOID="IG_ADAE_GSKADaMMDES1.IT_AEOUT_GSKADaMADAEMDE1" Mandatory="Yes" OrderNumber="1060"/>
                <ItemRef ItemOID="IG_ADAE_GSKADaMMDES1.IT_AREL_GSKADaMADAEMDE1" Mandatory="No" OrderNumber="1100"/>
                <ItemRef ItemOID="IG_ADAE_GSKADaMMDES1.IT_ATOXGR_GSKADaMADAEMDE1" Mandatory="No" OrderNumber="1140"/>
                <ItemRef ItemOID="IG_ADAE_GSKADaMMDES1.IT_SMQ01NAM_GSKADaMADAEMDE1" Mandatory="No" OrderNumber="1170"/>
                <ItemRef ItemOID="IG_ADAE_GSKADaMMDES1.IT_SMQ01SC_GSKADaMADAEMDE1" Mandatory="No" OrderNumber="1190"/>
                <ItemRef ItemOID="IG_ADAE_GSKADaMMDES1.IT_CQ01NAM_GSKADaMADAEMDE1" Mandatory="No" OrderNumber="1210"/>
                <ItemRef ItemOID="IG_ADAE_GSKADaMMDES1.IT_AFTRTSTC_GSKADaMADAEMDE1" Mandatory="No"
                         MethodOID="MT_AFTRTSTC_GSKADaMADAEMDE1" OrderNumber="1220"/>
                <ItemRef ItemOID="IG_ADAE_GSKADaMMDES1.IT_ALTRTSTC_GSKADaMADAEMDE1" Mandatory="No"
                         MethodOID="MT_ALTRTSTC_GSKADaMADAEMDE1" OrderNumber="1230"/>
                <ItemRef ItemOID="IG_ADAE_GSKADaMMDES1.IT_APFTRSTC_GSKADaMADAEMDE1" Mandatory="No"
                         MethodOID="MT_APFTRSTC_GSKADaMADAEMDE1" OrderNumber="1240"/>
                <ItemRef ItemOID="IG_ADAE_GSKADaMMDES1.IT_DOSEU_GSKADaMADAEMDE1" Mandatory="No" OrderNumber="1270"/>
                <ItemRef ItemOID="IG_ADAE_GSKADaMMDES1.IT_AERDG1_GSKADaMADAEMDE1" Mandatory="No" OrderNumber="1620"/>
                <ItemRef ItemOID="IG_ADAE_GSKADaMMDES1.IT_AEDECL_GSKADaMADAEMDE1" Mandatory="No" OrderNumber="1740"/>
                <ItemRef ItemOID="IG_ADAE_GSKADaMMDES1.IT_WEIGHTBL_GSKADaMADAEMDE1" Mandatory="Yes" OrderNumber="35"/>
                <ItemRef ItemOID="IG_ADAE_GSKADaMMDES1.IT_AGE_GSKADaMADAEMDE1" Mandatory="No" OrderNumber="40"/>
                <ItemRef ItemOID="IG_ADAE_GSKADaMMDES1.IT_AAGE9_GSKADaMADAEMDE1" Mandatory="No"
                         MethodOID="MT_AAGE9_GSKADaMADAEMDE1" OrderNumber="41"/>
                <ItemRef ItemOID="IG_ADAE_GSKADaMMDES1.IT_SEXN_GSKADaMADAEMDE1" Mandatory="No" OrderNumber="55"/>
                <ItemRef ItemOID="IG_ADAE_GSKADaMMDES1.IT_RACEN_GSKADaMADAEMDE1" Mandatory="No" OrderNumber="65"/>
                <ItemRef ItemOID="IG_ADAE_GSKADaMMDES1.IT_TRTPN_GSKADaMADAEMDE1" Mandatory="No" OrderNumber="130"/>
                <ItemRef ItemOID="IG_ADAE_GSKADaMMDES1.IT_APERIOD_GSKADaMADAEMDE1" Mandatory="No"
                         MethodOID="MT_APERIOD_GSKADaMADAEMDE1" OrderNumber="146"/>
                <ItemRef ItemOID="IG_ADAE_GSKADaMMDES1.IT_ASPER_GSKADaMADAEMDE1" Mandatory="No"
                         MethodOID="MT_ASPER_GSKADaMADAEMDE1" OrderNumber="149"/>
                <ItemRef ItemOID="IG_ADAE_GSKADaMMDES1.IT_TRTAN_GSKADaMADAEMDE1" Mandatory="No" OrderNumber="153"/>
                <ItemRef ItemOID="IG_ADAE_GSKADaMMDES1.IT_ASPDOSEN_GSKADaMADAEMDE1" Mandatory="No"
                         MethodOID="MT_ASPDOSEN_GSKADaMADAEMDE1" OrderNumber="155"/>
                <ItemRef ItemOID="IG_ADAE_GSKADaMMDES1.IT_ASPERSDY_GSKADaMADAEMDE1" Mandatory="No" OrderNumber="161"/>
                <ItemRef ItemOID="IG_ADAE_GSKADaMMDES1.IT_TRT01AN_GSKADaMADAEMDE1" Mandatory="No" OrderNumber="170"/>
                <ItemRef ItemOID="IG_ADAE_GSKADaMMDES1.IT_TRT01PN_GSKADaMADAEMDE1" Mandatory="No" OrderNumber="190"/>
                <ItemRef ItemOID="IG_ADAE_GSKADaMMDES1.IT_TRTSEQPN_GSKADaMADAEMDE1" Mandatory="No" OrderNumber="210"/>
                <ItemRef ItemOID="IG_ADAE_GSKADaMMDES1.IT_TRTSEQAN_GSKADaMADAEMDE1" Mandatory="No" OrderNumber="230"/>
                <ItemRef ItemOID="IG_ADAE_GSKADaMMDES1.IT_TPERIOD_GSKADaMADAEMDE1" Mandatory="No"
                         MethodOID="MT_TPERIOD_GSKADaMADAEMDE1" OrderNumber="240"/>
                <ItemRef ItemOID="IG_ADAE_GSKADaMMDES1.IT_APHASEN_GSKADaMADAEMDE1" Mandatory="No" OrderNumber="270"/>
                <ItemRef ItemOID="IG_ADAE_GSKADaMMDES1.IT_TPERADY_GSKADaMADAEMDE1" Mandatory="No"
                         MethodOID="MT_TPERADY_GSKADaMADAEMDE1" OrderNumber="280"/>
                <ItemRef ItemOID="IG_ADAE_GSKADaMMDES1.IT_TPERSTDY_GSKADaMADAEMDE1" Mandatory="No"
                         MethodOID="MT_TPERSTDY_GSKADaMADAEMDE1" OrderNumber="290"/>
                <ItemRef ItemOID="IG_ADAE_GSKADaMMDES1.IT_TPERENDY_GSKADaMADAEMDE1" Mandatory="No"
                         MethodOID="MT_TPERENDY_GSKADaMADAEMDE1" OrderNumber="300"/>
                <ItemRef ItemOID="IG_ADAE_GSKADaMMDES1.IT_ASTDY_GSKADaMADAEMDE1" Mandatory="No"
                         MethodOID="MT_ASTDY_GSKADaMADAEMDE1" OrderNumber="350"/>
                <ItemRef ItemOID="IG_ADAE_GSKADaMMDES1.IT_AESTDY_GSKADaMADAEMDE1" Mandatory="Yes" OrderNumber="360"/>
                <ItemRef ItemOID="IG_ADAE_GSKADaMMDES1.IT_AENDY_GSKADaMADAEMDE1" Mandatory="Yes"
                         MethodOID="MT_AENDY_GSKADaMADAEMDE1" OrderNumber="430"/>
                <ItemRef ItemOID="IG_ADAE_GSKADaMMDES1.IT_AEENDY_GSKADaMADAEMDE1" Mandatory="Yes" OrderNumber="440"/>
                <ItemRef ItemOID="IG_ADAE_GSKADaMMDES1.IT_AESEQ_GSKADaMADAEMDE1" KeySequence="5" Mandatory="Yes"
                         OrderNumber="450"/>
                <ItemRef ItemOID="IG_ADAE_GSKADaMMDES1.IT_ADURN_GSKADaMADAEMDE1" Mandatory="Yes" OrderNumber="600"/>
                <ItemRef ItemOID="IG_ADAE_GSKADaMMDES1.IT_ARELN_GSKADaMADAEMDE1" Mandatory="No" OrderNumber="1110"/>
                <ItemRef ItemOID="IG_ADAE_GSKADaMMDES1.IT_ATOXGRN_GSKADaMADAEMDE1" Mandatory="No" OrderNumber="1150"/>
                <ItemRef ItemOID="IG_ADAE_GSKADaMMDES1.IT_SMQ01CD_GSKADaMADAEMDE1" Mandatory="No" OrderNumber="1180"/>
                <ItemRef ItemOID="IG_ADAE_GSKADaMMDES1.IT_SMQ01SCN_GSKADaMADAEMDE1" Mandatory="No" OrderNumber="1200"/>
                <ItemRef ItemOID="IG_ADAE_GSKADaMMDES1.IT_DOSEON_GSKADaMADAEMDE1" Mandatory="No" OrderNumber="1250"/>
                <ItemRef ItemOID="IG_ADAE_GSKADaMMDES1.IT_DOSCUMA_GSKADaMADAEMDE1" Mandatory="No" OrderNumber="1260"/>
                <ItemRef ItemOID="IG_ADAE_GSKADaMMDES1.IT_AESEV_GSKADaMADAEMDE1" Mandatory="Yes" OrderNumber="640"/>
                <ItemRef ItemOID="IG_ADAE_GSKADaMMDES1.IT_ASEV_GSKADaMADAEMDE1" Mandatory="No"
                         MethodOID="MT_ASEV_GSKADaMADAEMDE1" OrderNumber="650"/>
                <ItemRef ItemOID="IG_ADAE_GSKADaMMDES1.IT_AEACN_GSKADaMADAEMDE1" Mandatory="Yes" OrderNumber="670"/>
                <ItemRef ItemOID="IG_ADAE_GSKADaMMDES1.IT_COUNTRY_GSKADaMADAEMDE1" Mandatory="No" OrderNumber="75"/>
                <ItemRef ItemOID="IG_ADAE_GSKADaMMDES1.IT_FASFL_GSKADaMADAEMDE1" Mandatory="No" OrderNumber="80"/>
                <ItemRef ItemOID="IG_ADAE_GSKADaMMDES1.IT_ITTFL_GSKADaMADAEMDE1" Mandatory="No" OrderNumber="90"/>
                <ItemRef ItemOID="IG_ADAE_GSKADaMMDES1.IT_SAFFL_GSKADaMADAEMDE1" Mandatory="No" OrderNumber="100"/>
                <ItemRef ItemOID="IG_ADAE_GSKADaMMDES1.IT_PPROTFL_GSKADaMADAEMDE1" Mandatory="No" OrderNumber="110"/>
                <ItemRef ItemOID="IG_ADAE_GSKADaMMDES1.IT_AETRTEM_GSKADaMADAEMDE1" Mandatory="No" OrderNumber="690"/>
                <ItemRef ItemOID="IG_ADAE_GSKADaMMDES1.IT_AESER_GSKADaMADAEMDE1" Mandatory="Yes" OrderNumber="960"/>
                <ItemRef ItemOID="IG_ADAE_GSKADaMMDES1.IT_AEREL_GSKADaMADAEMDE1" Mandatory="Yes" OrderNumber="1080"/>
                <ItemRef ItemOID="IG_ADAE_GSKADaMMDES1.IT_AONGO_GSKADaMADAEMDE1" Mandatory="Yes" OrderNumber="1160"/>
                <ItemRef ItemOID="IG_ADAE_GSKADaMMDES1.IT_RACE_GSKADaMADAEMDE1" Mandatory="No" OrderNumber="60"/>
                <ItemRef ItemOID="IG_ADAE_GSKADaMMDES1.IT_SEX_GSKADaMADAEMDE1" Mandatory="No" OrderNumber="50"/>
                <ItemRef ItemOID="IG_ADAE_GSKADaMMDES1.IT_ACOUNTRY_GSKADaMADAEMDE1" Mandatory="No" OrderNumber="70"/>
                <ItemRef ItemOID="IG_ADAE_GSKADaMMDES1.IT_AETOXGRN_GSKADaMADAEMDE1" Mandatory="No" OrderNumber="1130"/>
                <ItemRef ItemOID="IG_ADAE_GSKADaMMDES1.IT_AESEVN_GSKADaMADAEMDE1" Mandatory="Yes"
                         MethodOID="MT_AESEVN_GSKADaMADAEMDE1" OrderNumber="650"/>
                <ItemRef ItemOID="IG_ADAE_GSKADaMMDES1.IT_ASEVN_GSKADaMADAEMDE1" Mandatory="No"
                         MethodOID="MT_ASEVN_GSKADaMADAEMDE1" OrderNumber="660"/>
                <ItemRef ItemOID="IG_ADAE_GSKADaMMDES1.IT_ASTDTF_GSKADaMADAEMDE1" Mandatory="No" OrderNumber="340"/>
                <ItemRef ItemOID="IG_ADAE_GSKADaMMDES1.IT_AENDTF_GSKADaMADAEMDE1" Mandatory="No" OrderNumber="400"/>
                <ItemRef ItemOID="IG_ADAE_GSKADaMMDES1.IT_AETOXGR_GSKADaMADAEMDE1" Mandatory="No" OrderNumber="1120"/>
                <ItemRef ItemOID="IG_ADAE_GSKADaMMDES1.IT_TRTEMFL_GSKADaMADAEMDE1" Mandatory="No"
                         MethodOID="MT_TRTEMFL_GSKADaMADAEMDE1" OrderNumber="680"/>
                <ItemRef ItemOID="IG_ADAE_GSKADaMMDES1.IT_PREFL_GSKADaMADAEMDE1" Mandatory="No" OrderNumber="710"/>
                <ItemRef ItemOID="IG_ADAE_GSKADaMMDES1.IT_FUPFL_GSKADaMADAEMDE1" Mandatory="No" OrderNumber="720"/>
                <ItemRef ItemOID="IG_ADAE_GSKADaMMDES1.IT_AESCAN_GSKADaMADAEMDE1" Mandatory="No" OrderNumber="970"/>
                <ItemRef ItemOID="IG_ADAE_GSKADaMMDES1.IT_AESCONG_GSKADaMADAEMDE1" Mandatory="Yes" OrderNumber="980"/>
                <ItemRef ItemOID="IG_ADAE_GSKADaMMDES1.IT_AESDISAB_GSKADaMADAEMDE1" Mandatory="Yes" OrderNumber="990"/>
                <ItemRef ItemOID="IG_ADAE_GSKADaMMDES1.IT_AESDTH_GSKADaMADAEMDE1" Mandatory="Yes" OrderNumber="1000"/>
                <ItemRef ItemOID="IG_ADAE_GSKADaMMDES1.IT_AESHOSP_GSKADaMADAEMDE1" Mandatory="Yes" OrderNumber="1010"/>
                <ItemRef ItemOID="IG_ADAE_GSKADaMMDES1.IT_AESLIFE_GSKADaMADAEMDE1" Mandatory="Yes" OrderNumber="1020"/>
                <ItemRef ItemOID="IG_ADAE_GSKADaMMDES1.IT_AESOD_GSKADaMADAEMDE1" Mandatory="No" OrderNumber="1030"/>
                <ItemRef ItemOID="IG_ADAE_GSKADaMMDES1.IT_AESMIE_GSKADaMADAEMDE1" Mandatory="Yes" OrderNumber="1040"/>
                <ItemRef ItemOID="IG_ADAE_GSKADaMMDES1.IT_AESPROT_GSKADaMADAEMDE1" Mandatory="No" OrderNumber="1050"/>
                <ItemRef ItemOID="IG_ADAE_GSKADaMMDES1.IT_ASTTM_GSKADaMADAEMDE1" Mandatory="No"
                         MethodOID="MT_ASTTM_GSKADaMADAEMDE1" OrderNumber="320"/>
                <ItemRef ItemOID="IG_ADAE_GSKADaMMDES1.IT_AENTM_GSKADaMADAEMDE1" Mandatory="No"
                         MethodOID="MT_AENTM_GSKADaMADAEMDE1" OrderNumber="380"/>
                <ItemRef ItemOID="IG_ADAE_GSKADaMMDES1.IT_ASTDTM_GSKADaMADAEMDE1" Mandatory="No"
                         MethodOID="MT_ASTDTM_GSKADaMADAEMDE1" OrderNumber="330"/>
                <ItemRef ItemOID="IG_ADAE_GSKADaMMDES1.IT_AENDTM_GSKADaMADAEMDE1" Mandatory="No"
                         MethodOID="MT_AENDTM_GSKADaMADAEMDE1" OrderNumber="390"/>
                <ItemRef ItemOID="IG_ADAE_GSKADaMMDES1.IT_AEBODLG_GSKADaMADAEMDE1" Mandatory="No" OrderNumber="492"/>
                <ItemRef ItemOID="IG_ADAE_GSKADaMMDES1.IT_AEBDSYLG_GSKADaMADAEMDE1" Mandatory="No" OrderNumber="493"/>
                <ItemRef ItemOID="IG_ADAE_GSKADaMMDES1.IT_AEOUTN_GSKADaMADAEMDE1" Mandatory="Yes"
                         MethodOID="MT_AEOUTN_GSKADaMADAEMDE1" OrderNumber="1070"/>
                <ItemRef ItemOID="IG_ADAE_GSKADaMMDES1.IT_ASTDT_GSKADaMADAEMDE1" KeySequence="3" Mandatory="Yes"
                         OrderNumber="310"/>
                <ItemRef ItemOID="IG_ADAE_GSKADaMMDES1.IT_AENDT_GSKADaMADAEMDE1" Mandatory="Yes"
                         MethodOID="MT_AENDT_GSKADaMADAEMDE1" OrderNumber="370"/>
                <ItemRef ItemOID="IG_ADAE_GSKADaMMDES1.IT_AESTDTC_GSKADaMADAEMDE1" Mandatory="Yes" OrderNumber="410"/>
                <ItemRef ItemOID="IG_ADAE_GSKADaMMDES1.IT_AEENDTC_GSKADaMADAEMDE1" Mandatory="Yes" OrderNumber="420"/>
                <ItemRef ItemOID="IG_ADAE_GSKADaMMDES1.IT_AEDUR_GSKADaMADAEMDE1" Mandatory="No" OrderNumber="630"/>
                <ItemRef ItemOID="IG_ADAE_GSKADaMMDES1.IT_AEDECOD_GSKADaMADAEMDE1" KeySequence="4" Mandatory="Yes"
                         OrderNumber="480"/>
                <ItemRef ItemOID="IG_ADAE_GSKADaMMDES1.IT_AEBODSYS_GSKADaMADAEMDE1" Mandatory="Yes" OrderNumber="490"/>
                <ItemRef ItemOID="IG_ADAE_GSKADaMMDES1.IT_AEBDSYCD_GSKADaMADAEMDE1" Mandatory="Yes" OrderNumber="500"/>
                <ItemRef ItemOID="IG_ADAE_GSKADaMMDES1.IT_AELLT_GSKADaMADAEMDE1" Mandatory="Yes" OrderNumber="510"/>
                <ItemRef ItemOID="IG_ADAE_GSKADaMMDES1.IT_AELLTCD_GSKADaMADAEMDE1" Mandatory="Yes" OrderNumber="520"/>
                <ItemRef ItemOID="IG_ADAE_GSKADaMMDES1.IT_AEPTCD_GSKADaMADAEMDE1" Mandatory="Yes" OrderNumber="530"/>
                <ItemRef ItemOID="IG_ADAE_GSKADaMMDES1.IT_AEHLT_GSKADaMADAEMDE1" Mandatory="Yes" OrderNumber="540"/>
                <ItemRef ItemOID="IG_ADAE_GSKADaMMDES1.IT_AEHLTCD_GSKADaMADAEMDE1" Mandatory="Yes" OrderNumber="550"/>
                <ItemRef ItemOID="IG_ADAE_GSKADaMMDES1.IT_AEHLGT_GSKADaMADAEMDE1" Mandatory="Yes" OrderNumber="560"/>
                <ItemRef ItemOID="IG_ADAE_GSKADaMMDES1.IT_AEHLGTCD_GSKADaMADAEMDE1" Mandatory="Yes" OrderNumber="570"/>
                <ItemRef ItemOID="IG_ADAE_GSKADaMMDES1.IT_AESOC_GSKADaMADAEMDE1" Mandatory="Yes" OrderNumber="580"/>
                <ItemRef ItemOID="IG_ADAE_GSKADaMMDES1.IT_AESOCCD_GSKADaMADAEMDE1" Mandatory="Yes" OrderNumber="590"/>
                <ItemRef ItemOID="IG_ADAE_GSKADaMMDES1.IT_ACT1GK1_GSKADaMADAEMDE2" Mandatory="No" OrderNumber="675"/>
                <ItemRef ItemOID="IG_ADAE_GSKADaMMDES1.IT_TESTRM_MDE1" Mandatory="No"/>
                <def:Class Name="OCCURRENCE DATA STRUCTURE"/>
            </ItemGroupDef>
            <ItemDef DataType="text" Length="9" Name="STUDYID"
                     OID="IG_G_OCCDS_GSKADaMMDES1.IT_STUDYID_GSKADaMG_OCCDSMDE1" mdr:Core="Required"
                     mdr:DatePublished="2025-09-17" mdr:Status="Approved" mdr:SubmissionDataType="Char">
                <Description>
                    <TranslatedText xml:lang="en">Study Identifier</TranslatedText>
                </Description>
            </ItemDef>
            <ItemDef DataType="text" Length="30" Name="USUBJID"
                     OID="IG_G_OCCDS_GSKADaMMDES1.IT_USUBJID_GSKADaMG_OCCDSMDE1" mdr:Core="Required"
                     mdr:DatePublished="2025-09-17" mdr:Status="Approved" mdr:SubmissionDataType="Char">
                <Description>
                    <TranslatedText xml:lang="en">Unique Subject Identifier</TranslatedText>
                </Description>
            </ItemDef>
            <ItemDef DataType="text" Length="20" Name="SUBJID"
                     OID="IG_G_OCCDS_GSKADaMMDES1.IT_SUBJID_GSKADaMG_OCCDSMDE1" mdr:Core="Permissible"
                     mdr:DatePublished="2025-09-17" mdr:Status="Approved" mdr:SubmissionDataType="Char">
                <Description>
                    <TranslatedText xml:lang="en">Subject Identifier for the Study</TranslatedText>
                </Description>
            </ItemDef>
            <ItemDef DataType="text" Length="10" Name="SITEID"
                     OID="IG_G_OCCDS_GSKADaMMDES1.IT_SITEID_GSKADaMG_OCCDSMDE1" mdr:Core="Permissible"
                     mdr:DatePublished="2025-09-17" mdr:Status="Approved" mdr:SubmissionDataType="Char">
                <Description>
                    <TranslatedText xml:lang="en">Study Site Identifier</TranslatedText>
                </Description>
            </ItemDef>
            <ItemDef DataType="text" Length="100" Name="TRTP" OID="IG_G_OCCDS_GSKADaMMDES1.IT_TRTP_GSKADaMG_OCCDSMDE1"
                     mdr:DatePublished="2025-09-17" mdr:Status="Approved" mdr:SubmissionDataType="Char">
                <Description>
                    <TranslatedText xml:lang="en">Planned Treatment</TranslatedText>
                </Description>
            </ItemDef>
            <ItemDef DataType="text" Length="100" Name="TRTA" OID="IG_G_OCCDS_GSKADaMMDES1.IT_TRTA_GSKADaMG_OCCDSMDE1"
                     mdr:DatePublished="2025-09-17" mdr:Status="Approved" mdr:SubmissionDataType="Char">
                <Description>
                    <TranslatedText xml:lang="en">Actual Treatment</TranslatedText>
                </Description>
            </ItemDef>
            <ItemDef DataType="text" Length="200" Name="TRTSEQP"
                     OID="IG_G_OCCDS_GSKADaMMDES1.IT_TRTSEQP_GSKADaMG_OCCDSMDE1" mdr:Core="Permissible"
                     mdr:DatePublished="2025-09-17" mdr:Status="Approved" mdr:SubmissionDataType="Char">
                <Description>
                    <TranslatedText xml:lang="en">Planned Sequence of Treatments</TranslatedText>
                </Description>
            </ItemDef>
            <ItemDef DataType="text" Length="200" Name="TRTSEQA"
                     OID="IG_G_OCCDS_GSKADaMMDES1.IT_TRTSEQA_GSKADaMG_OCCDSMDE1" mdr:Core="Permissible"
                     mdr:DatePublished="2025-09-17" mdr:Status="Approved" mdr:SubmissionDataType="Char">
                <Description>
                    <TranslatedText xml:lang="en">Actual Sequence of Treatments</TranslatedText>
                </Description>
            </ItemDef>
            <ItemDef DataType="text" Length="100" Name="TPERIODC"
                     OID="IG_G_OCCDS_GSKADaMMDES1.IT_TPERIODC_GSKADaMG_OCCDSMDE1" mdr:Core="Permissible"
                     mdr:DatePublished="2025-09-17" mdr:Status="Approved" mdr:SubmissionDataType="Char">
                <Description>
                    <TranslatedText xml:lang="en">Treatment Period (C)</TranslatedText>
                </Description>
            </ItemDef>
            <ItemDef DataType="text" Length="100" Name="TRT01A"
                     OID="IG_G_OCCDS_GSKADaMMDES1.IT_TRT01A_GSKADaMG_OCCDSMDE1" mdr:Core="Required"
                     mdr:DatePublished="2025-09-17" mdr:Status="Approved" mdr:SubmissionDataType="Char">
                <Description>
                    <TranslatedText xml:lang="en">Actual Treatment for Period 01</TranslatedText>
                </Description>
            </ItemDef>
            <ItemDef DataType="text" Length="100" Name="TRT01P"
                     OID="IG_G_OCCDS_GSKADaMMDES1.IT_TRT01P_GSKADaMG_OCCDSMDE1" mdr:Core="Required"
                     mdr:DatePublished="2025-09-17" mdr:Status="Approved" mdr:SubmissionDataType="Char">
                <Description>
                    <TranslatedText xml:lang="en">Planned Treatment for Period 01</TranslatedText>
                </Description>
            </ItemDef>
            <ItemDef DataType="text" Length="100" Name="APERIODC"
                     OID="IG_G_OCCDS_GSKADaMMDES1.IT_APERIODC_GSKADaMG_OCCDSMDE1" mdr:DatePublished="2025-09-17"
                     mdr:Status="Approved" mdr:SubmissionDataType="Char">
                <Description>
                    <TranslatedText xml:lang="en">Period (C)</TranslatedText>
                </Description>
            </ItemDef>
            <ItemDef DataType="text" Length="100" Name="APHASE"
                     OID="IG_G_OCCDS_GSKADaMMDES1.IT_APHASE_GSKADaMG_OCCDSMDE1" mdr:Core="Permissible"
                     mdr:DatePublished="2025-09-17" mdr:Status="Approved" mdr:SubmissionDataType="Char">
                <Description>
                    <TranslatedText xml:lang="en">Phase</TranslatedText>
                </Description>
            </ItemDef>
            <ItemDef DataType="text" Length="200" Name="xxTERM"
                     OID="IG_G_OCCDS_GSKADaMMDES1.IT_xxTERM_GSKADaMG_OCCDSMDE1" mdr:Core="Required"
                     mdr:DatePublished="2025-09-17" mdr:Status="Approved" mdr:SubmissionDataType="Char">
                <Description>
                    <TranslatedText xml:lang="en">Reported Term</TranslatedText>
                </Description>
            </ItemDef>
            <ItemDef DataType="text" Length="100" Name="xxSEQ" OID="IG_G_OCCDS_GSKADaMMDES1.IT_xxSEQ_GSKADaMG_OCCDSMDE1"
                     mdr:Core="Required" mdr:DatePublished="2025-09-17" mdr:Status="Approved"
                     mdr:SubmissionDataType="Char">
                <Description>
                    <TranslatedText xml:lang="en">Sequence Integer</TranslatedText>
                </Description>
            </ItemDef>
            <ItemDef DataType="text" Length="200" Name="xxDECOD"
                     OID="IG_G_OCCDS_GSKADaMMDES1.IT_xxDECOD_GSKADaMG_OCCDSMDE1" mdr:DatePublished="2025-09-17"
                     mdr:Status="Approved" mdr:SubmissionDataType="Char">
                <Description>
                    <TranslatedText xml:lang="en">Dictonary-Derived Term</TranslatedText>
                </Description>
            </ItemDef>
            <ItemDef DataType="text" Length="40" Name="ADURU" OID="IG_G_OCCDS_GSKADaMMDES1.IT_ADURU_GSKADaMG_OCCDSMDE1"
                     mdr:DatePublished="2025-09-17" mdr:Status="Approved" mdr:SubmissionDataType="Char">
                <Description>
                    <TranslatedText xml:lang="en">Analysis Duration Units</TranslatedText>
                </Description>
            </ItemDef>
            <ItemDef DataType="integer" Length="8" Name="WEIGHTBL"
                     OID="IG_G_OCCDS_GSKADaMMDES1.IT_WEIGHTBL_GSKADaMG_OCCDSMDE1" mdr:Core="Permissible"
                     mdr:DatePublished="2025-09-17" mdr:Status="Approved" mdr:SubmissionDataType="Num">
                <Description>
                    <TranslatedText xml:lang="en">Weight (kg) at Baseline</TranslatedText>
                </Description>
            </ItemDef>
            <ItemDef DataType="integer" Length="8" Name="AGE" OID="IG_G_OCCDS_GSKADaMMDES1.IT_AGE_GSKADaMG_OCCDSMDE1"
                     mdr:Core="Permissible" mdr:DatePublished="2025-09-17" mdr:Status="Approved"
                     mdr:SubmissionDataType="Num">
                <Description>
                    <TranslatedText xml:lang="en">Age</TranslatedText>
                </Description>
            </ItemDef>
            <ItemDef DataType="integer" Length="8" Name="TRTPN"
                     OID="IG_G_OCCDS_GSKADaMMDES1.IT_TRTPN_GSKADaMG_OCCDSMDE1" mdr:DatePublished="2025-09-17"
                     mdr:Status="Approved" mdr:SubmissionDataType="Num">
                <Description>
                    <TranslatedText xml:lang="en">Planned Treatment (N)</TranslatedText>
                </Description>
            </ItemDef>
            <ItemDef DataType="integer" Length="8" Name="TRTAN"
                     OID="IG_G_OCCDS_GSKADaMMDES1.IT_TRTAN_GSKADaMG_OCCDSMDE1" mdr:DatePublished="2025-09-17"
                     mdr:Status="Approved" mdr:SubmissionDataType="Num">
                <Description>
                    <TranslatedText xml:lang="en">Actual Treatment (N)</TranslatedText>
                </Description>
            </ItemDef>
            <ItemDef DataType="integer" Length="8" Name="TRTSEQPN"
                     OID="IG_G_OCCDS_GSKADaMMDES1.IT_TRTSEQPN_GSKADaMG_OCCDSMDE1" mdr:Core="Permissible"
                     mdr:DatePublished="2025-09-17" mdr:Status="Approved" mdr:SubmissionDataType="Num">
                <Description>
                    <TranslatedText xml:lang="en">Planned Sequence of Treatments (N)</TranslatedText>
                </Description>
            </ItemDef>
            <ItemDef DataType="integer" Length="8" Name="TRTSEQAN"
                     OID="IG_G_OCCDS_GSKADaMMDES1.IT_TRTSEQAN_GSKADaMG_OCCDSMDE1" mdr:Core="Permissible"
                     mdr:DatePublished="2025-09-17" mdr:Status="Approved" mdr:SubmissionDataType="Num">
                <Description>
                    <TranslatedText xml:lang="en">Actual Sequence of Treatments (N)</TranslatedText>
                </Description>
            </ItemDef>
            <ItemDef DataType="integer" Length="8" Name="TPERIOD"
                     OID="IG_G_OCCDS_GSKADaMMDES1.IT_TPERIOD_GSKADaMG_OCCDSMDE1" mdr:Core="Permissible"
                     mdr:DatePublished="2025-09-17" mdr:Status="Approved" mdr:SubmissionDataType="Num">
                <Description>
                    <TranslatedText xml:lang="en">Treatment Period</TranslatedText>
                </Description>
            </ItemDef>
            <ItemDef DataType="integer" Length="8" Name="TRT01AN"
                     OID="IG_G_OCCDS_GSKADaMMDES1.IT_TRT01AN_GSKADaMG_OCCDSMDE1" mdr:Core="Required"
                     mdr:DatePublished="2025-09-17" mdr:Status="Approved" mdr:SubmissionDataType="Num">
                <Description>
                    <TranslatedText xml:lang="en">Actual Treatment for Period 01 (N)</TranslatedText>
                </Description>
            </ItemDef>
            <ItemDef DataType="integer" Length="8" Name="TRT01PN"
                     OID="IG_G_OCCDS_GSKADaMMDES1.IT_TRT01PN_GSKADaMG_OCCDSMDE1" mdr:Core="Required"
                     mdr:DatePublished="2025-09-17" mdr:Status="Approved" mdr:SubmissionDataType="Num">
                <Description>
                    <TranslatedText xml:lang="en">Planned Treatment for Period 01 (N)</TranslatedText>
                </Description>
            </ItemDef>
            <ItemDef DataType="integer" Length="8" Name="APERIOD"
                     OID="IG_G_OCCDS_GSKADaMMDES1.IT_APERIOD_GSKADaMG_OCCDSMDE1" mdr:DatePublished="2025-09-17"
                     mdr:Status="Approved" mdr:SubmissionDataType="Num">
                <Description>
                    <TranslatedText xml:lang="en">Period</TranslatedText>
                </Description>
            </ItemDef>
            <ItemDef DataType="integer" Length="8" Name="APHASEN"
                     OID="IG_G_OCCDS_GSKADaMMDES1.IT_APHASEN_GSKADaMG_OCCDSMDE1" mdr:Core="Permissible"
                     mdr:DatePublished="2025-09-17" mdr:Status="Approved" mdr:SubmissionDataType="Num">
                <Description>
                    <TranslatedText xml:lang="en">Phase (N)</TranslatedText>
                </Description>
            </ItemDef>
            <ItemDef DataType="integer" Length="8" Name="TPERSTDY"
                     OID="IG_G_OCCDS_GSKADaMMDES1.IT_TPERSTDY_GSKADaMG_OCCDSMDE1" mdr:Core="Permissible"
                     mdr:DatePublished="2025-09-17" mdr:Status="Approved" mdr:SubmissionDataType="Num">
                <Description>
                    <TranslatedText xml:lang="en">Analysis Relative Start Day Trt Period</TranslatedText>
                </Description>
            </ItemDef>
            <ItemDef DataType="integer" Length="8" Name="TPERENDY"
                     OID="IG_G_OCCDS_GSKADaMMDES1.IT_TPERENDY_GSKADaMG_OCCDSMDE1" mdr:Core="Permissible"
                     mdr:DatePublished="2025-09-17" mdr:Status="Approved" mdr:SubmissionDataType="Num">
                <Description>
                    <TranslatedText xml:lang="en">Analysis Relative End Day in Trt Period</TranslatedText>
                </Description>
            </ItemDef>
            <ItemDef DataType="integer" Length="8" Name="ASTDT"
                     OID="IG_G_OCCDS_GSKADaMMDES1.IT_ASTDT_GSKADaMG_OCCDSMDE1" mdr:DatePublished="2025-09-17"
                     mdr:Status="Approved" mdr:SubmissionDataType="Num">
                <Description>
                    <TranslatedText xml:lang="en">Analysis Start Date</TranslatedText>
                </Description>
            </ItemDef>
            <ItemDef DataType="integer" Length="8" Name="ASTTM"
                     OID="IG_G_OCCDS_GSKADaMMDES1.IT_ASTTM_GSKADaMG_OCCDSMDE1" mdr:DatePublished="2025-09-17"
                     mdr:Status="Approved" mdr:SubmissionDataType="Num">
                <Description>
                    <TranslatedText xml:lang="en">Analysis Start Time</TranslatedText>
                </Description>
            </ItemDef>
            <ItemDef DataType="integer" Length="8" Name="ASTDTM"
                     OID="IG_G_OCCDS_GSKADaMMDES1.IT_ASTDTM_GSKADaMG_OCCDSMDE1" mdr:DatePublished="2025-09-17"
                     mdr:Status="Approved" mdr:SubmissionDataType="Num">
                <Description>
                    <TranslatedText xml:lang="en">Analysis Start Date/Time</TranslatedText>
                </Description>
            </ItemDef>
            <ItemDef DataType="integer" Length="8" Name="ASTDY"
                     OID="IG_G_OCCDS_GSKADaMMDES1.IT_ASTDY_GSKADaMG_OCCDSMDE1" mdr:DatePublished="2025-09-17"
                     mdr:Status="Approved" mdr:SubmissionDataType="Num">
                <Description>
                    <TranslatedText xml:lang="en">Analysis Start Relative Day</TranslatedText>
                </Description>
            </ItemDef>
            <ItemDef DataType="integer" Length="8" Name="AENDT"
                     OID="IG_G_OCCDS_GSKADaMMDES1.IT_AENDT_GSKADaMG_OCCDSMDE1" mdr:DatePublished="2025-09-17"
                     mdr:Status="Approved" mdr:SubmissionDataType="Num">
                <Description>
                    <TranslatedText xml:lang="en">Analysis End Date</TranslatedText>
                </Description>
            </ItemDef>
            <ItemDef DataType="integer" Length="8" Name="AENTM"
                     OID="IG_G_OCCDS_GSKADaMMDES1.IT_AENTM_GSKADaMG_OCCDSMDE1" mdr:DatePublished="2025-09-17"
                     mdr:Status="Approved" mdr:SubmissionDataType="Num">
                <Description>
                    <TranslatedText xml:lang="en">Analysis End Time</TranslatedText>
                </Description>
            </ItemDef>
            <ItemDef DataType="integer" Length="8" Name="AENDTM"
                     OID="IG_G_OCCDS_GSKADaMMDES1.IT_AENDTM_GSKADaMG_OCCDSMDE1" mdr:DatePublished="2025-09-17"
                     mdr:Status="Approved" mdr:SubmissionDataType="Num">
                <Description>
                    <TranslatedText xml:lang="en">Analysis End Date/Time</TranslatedText>
                </Description>
            </ItemDef>
            <ItemDef DataType="integer" Length="8" Name="AENDY"
                     OID="IG_G_OCCDS_GSKADaMMDES1.IT_AENDY_GSKADaMG_OCCDSMDE1" mdr:Core="Permissible"
                     mdr:DatePublished="2025-09-17" mdr:Status="Approved" mdr:SubmissionDataType="Num">
                <Description>
                    <TranslatedText xml:lang="en">Analysis End Relative Day</TranslatedText>
                </Description>
            </ItemDef>
            <ItemDef DataType="integer" Length="8" Name="ADURN"
                     OID="IG_G_OCCDS_GSKADaMMDES1.IT_ADURN_GSKADaMG_OCCDSMDE1" mdr:Core="Permissible"
                     mdr:DatePublished="2025-09-17" mdr:Status="Approved" mdr:SubmissionDataType="Num">
                <Description>
                    <TranslatedText xml:lang="en">Analysis Duration (N)</TranslatedText>
                </Description>
            </ItemDef>
            <ItemDef DataType="text" Length="1" Name="ENRLFL" OID="IG_G_OCCDS_GSKADaMMDES1.IT_ENRLFL_GSKADaMG_OCCDSMDE1"
                     mdr:DatePublished="2025-09-17" mdr:Status="Approved" mdr:SubmissionDataType="Char">
                <Description>
                    <TranslatedText xml:lang="en">Enrolled Population Flag</TranslatedText>
                </Description>
                <CodeListRef CodeListOID="CL_NY_GSKC66742VD1"/>
            </ItemDef>
            <ItemDef DataType="text" Length="1" Name="FASFL" OID="IG_G_OCCDS_GSKADaMMDES1.IT_FASFL_GSKADaMG_OCCDSMDE1"
                     mdr:DatePublished="2025-09-17" mdr:Status="Approved" mdr:SubmissionDataType="Char">
                <Description>
                    <TranslatedText xml:lang="en">Full Analysis Set Population Flag</TranslatedText>
                </Description>
                <CodeListRef CodeListOID="CL_NY_GSKC66742VD1"/>
            </ItemDef>
            <ItemDef DataType="text" Length="1" Name="ITTFL" OID="IG_G_OCCDS_GSKADaMMDES1.IT_ITTFL_GSKADaMG_OCCDSMDE1"
                     mdr:DatePublished="2025-09-17" mdr:Status="Approved" mdr:SubmissionDataType="Char">
                <Description>
                    <TranslatedText xml:lang="en">Intent-To-Treat Population
                        Flag
                    </TranslatedText>
                </Description>
                <CodeListRef CodeListOID="CL_NY_GSKC66742VD1"/>
            </ItemDef>
            <ItemDef DataType="text" Length="1" Name="SAFFL" OID="IG_G_OCCDS_GSKADaMMDES1.IT_SAFFL_GSKADaMG_OCCDSMDE1"
                     mdr:DatePublished="2025-09-17" mdr:Status="Approved" mdr:SubmissionDataType="Char">
                <Description>
                    <TranslatedText xml:lang="en">Safety Population Flag</TranslatedText>
                </Description>
                <CodeListRef CodeListOID="CL_NY_GSKC66742VD1"/>
            </ItemDef>
            <ItemDef DataType="text" Length="1" Name="PPROTFL"
                     OID="IG_G_OCCDS_GSKADaMMDES1.IT_PPROTFL_GSKADaMG_OCCDSMDE1" mdr:DatePublished="2025-09-17"
                     mdr:Status="Approved" mdr:SubmissionDataType="Char">
                <Description>
                    <TranslatedText xml:lang="en">Per-Protocol Population
                        Flag
                    </TranslatedText>
                </Description>
                <CodeListRef CodeListOID="CL_NY_GSKC66742VD1"/>
            </ItemDef>
            <ItemDef DataType="text" Length="1" Name="SEX" OID="IG_G_OCCDS_GSKADaMMDES1.IT_SEX_GSKADaMG_OCCDSMDE1"
                     mdr:DatePublished="2025-09-17" mdr:Status="Approved" mdr:SubmissionDataType="Char">
                <Description>
                    <TranslatedText xml:lang="en">Sex</TranslatedText>
                </Description>
                <CodeListRef CodeListOID="CL_SEX_GSKC66731VD1"/>
            </ItemDef>
            <ItemDef DataType="text" Length="100" Name="ARACE" OID="IG_G_OCCDS_GSKADaMMDES1.IT_ARACE_GSKADaMG_OCCDSMDE1"
                     mdr:DatePublished="2025-09-17" mdr:Status="Approved" mdr:SubmissionDataType="Char">
                <Description>
                    <TranslatedText xml:lang="en">Analysis Race</TranslatedText>
                </Description>
                <CodeListRef CodeListOID="CL_ARACE_S404005VD1"/>
            </ItemDef>
            <ItemDef DataType="text" Length="100" Name="ACOUNTRY"
                     OID="IG_G_OCCDS_GSKADaMMDES1.IT_ACOUNTRY_GSKADaMG_OCCDSMDE1" mdr:Core="Permissible"
                     mdr:DatePublished="2025-09-17" mdr:Status="Approved" mdr:SubmissionDataType="Char">
                <Description>
                    <TranslatedText xml:lang="en">Analysis Country</TranslatedText>
                </Description>
                <CodeListRef CodeListOID="CL_ACOUNTRY_S404008VD1"/>
            </ItemDef>
            <ItemDef DataType="text" Length="1" Name="ASTDTF" OID="IG_G_OCCDS_GSKADaMMDES1.IT_ASTDTF_GSKADaMG_OCCDSMDE1"
                     mdr:DatePublished="2025-09-17" mdr:Status="Approved" mdr:SubmissionDataType="Char">
                <Description>
                    <TranslatedText xml:lang="en">Analysis Start Date Imputation Flag</TranslatedText>
                </Description>
                <CodeListRef CodeListOID="CL_DATEFL_S4040026VD1"/>
            </ItemDef>
            <ItemDef DataType="text" Length="1" Name="AENDTF" OID="IG_G_OCCDS_GSKADaMMDES1.IT_AENDTF_GSKADaMG_OCCDSMDE1"
                     mdr:DatePublished="2025-09-17" mdr:Status="Approved" mdr:SubmissionDataType="Char">
                <Description>
                    <TranslatedText xml:lang="en">Analysis End Date Imputation Flag</TranslatedText>
                </Description>
                <CodeListRef CodeListOID="CL_DATEFL_S4040026VD1"/>
            </ItemDef>
            <ItemDef DataType="text" Length="1" Name="ANL01FL"
                     OID="IG_G_OCCDS_GSKADaMMDES1.IT_ANL01FL_GSKADaMG_OCCDSMDE1" mdr:Core="Permissible"
                     mdr:DatePublished="2025-09-17" mdr:Status="Approved" mdr:SubmissionDataType="Char">
                <Description>
                    <TranslatedText xml:lang="en">Analysis Flag 01</TranslatedText>
                </Description>
                <CodeListRef CodeListOID="CL_Y_BLANK_S404004VD1"/>
            </ItemDef>
            <ItemDef DataType="text" Length="8" Name="ARACEN" OID="IG_G_OCCDS_GSKADaMMDES1.IT_ARACEN_GSKADaMG_OCCDSMDE1"
                     mdr:DatePublished="2025-09-17" mdr:Status="Approved" mdr:SubmissionDataType="Char">
                <Description>
                    <TranslatedText xml:lang="en">Analysis Race (N)</TranslatedText>
                </Description>
                <CodeListRef CodeListOID="CL_ARACEN_S404006VD1"/>
            </ItemDef>
            <ItemDef DataType="text" Length="8" Name="SEXN" OID="IG_G_OCCDS_GSKADaMMDES1.IT_SEXN_GSKADaMG_OCCDSMDE1"
                     mdr:DatePublished="2025-09-17" mdr:Status="Approved" mdr:SubmissionDataType="Char">
                <Description>
                    <TranslatedText xml:lang="en">Sex (N)</TranslatedText>
                </Description>
                <CodeListRef CodeListOID="CL_SEXN_S404007VD1"/>
            </ItemDef>
            <ItemDef DataType="text" Length="9" Name="STUDYID" OID="IG_G_BDS_GSKADaMMDES1.IT_STUDYID_GSKADaMG_BDSMDE1"
                     mdr:Core="Required" mdr:DatePublished="2025-09-17" mdr:Status="Approved"
                     mdr:SubmissionDataType="Char">
                <Description>
                    <TranslatedText xml:lang="en">Study Identifier</TranslatedText>
                </Description>
            </ItemDef>
            <ItemDef DataType="text" Length="30" Name="USUBJID" OID="IG_G_BDS_GSKADaMMDES1.IT_USUBJID_GSKADaMG_BDSMDE1"
                     mdr:Core="Required" mdr:DatePublished="2025-09-17" mdr:Status="Approved"
                     mdr:SubmissionDataType="Char">
                <Description>
                    <TranslatedText xml:lang="en">Unique Subject Identifier</TranslatedText>
                </Description>
            </ItemDef>
            <ItemDef DataType="text" Length="20" Name="SUBJID" OID="IG_G_BDS_GSKADaMMDES1.IT_SUBJID_GSKADaMG_BDSMDE1"
                     mdr:Core="Required" mdr:DatePublished="2025-09-17" mdr:Status="Approved"
                     mdr:SubmissionDataType="Char">
                <Description>
                    <TranslatedText xml:lang="en">Subject Identifier for the Study</TranslatedText>
                </Description>
            </ItemDef>
            <ItemDef DataType="text" Length="10" Name="SITEID" OID="IG_G_BDS_GSKADaMMDES1.IT_SITEID_GSKADaMG_BDSMDE1"
                     mdr:Core="Required" mdr:DatePublished="2025-09-17" mdr:Status="Approved"
                     mdr:SubmissionDataType="Char">
                <Description>
                    <TranslatedText xml:lang="en">Study Site Identifier</TranslatedText>
                </Description>
            </ItemDef>
            <ItemDef DataType="text" Length="100" Name="TRTP" OID="IG_G_BDS_GSKADaMMDES1.IT_TRTP_GSKADaMG_BDSMDE1"
                     mdr:DatePublished="2025-09-17" mdr:Status="Approved" mdr:SubmissionDataType="Char">
                <Description>
                    <TranslatedText xml:lang="en">Planned Treatment</TranslatedText>
                </Description>
            </ItemDef>
            <ItemDef DataType="text" Length="100" Name="TRTA" OID="IG_G_BDS_GSKADaMMDES1.IT_TRTA_GSKADaMG_BDSMDE1"
                     mdr:DatePublished="2025-09-17" mdr:Status="Approved" mdr:SubmissionDataType="Char">
                <Description>
                    <TranslatedText xml:lang="en">Actual Treatment</TranslatedText>
                </Description>
            </ItemDef>
            <ItemDef DataType="text" Length="100" Name="TRT01A" OID="IG_G_BDS_GSKADaMMDES1.IT_TRT01A_GSKADaMG_BDSMDE1"
                     mdr:DatePublished="2025-09-17" mdr:Status="Approved" mdr:SubmissionDataType="Char">
                <Description>
                    <TranslatedText xml:lang="en">Actual Treatment for Period 01</TranslatedText>
                </Description>
            </ItemDef>
            <ItemDef DataType="text" Length="100" Name="TRT01P" OID="IG_G_BDS_GSKADaMMDES1.IT_TRT01P_GSKADaMG_BDSMDE1"
                     mdr:Core="Required" mdr:DatePublished="2025-09-17" mdr:Status="Approved"
                     mdr:SubmissionDataType="Char">
                <Description>
                    <TranslatedText xml:lang="en">Planned Treatment for Period 01</TranslatedText>
                </Description>
            </ItemDef>
            <ItemDef DataType="text" Length="200" Name="TRTSEQP" OID="IG_G_BDS_GSKADaMMDES1.IT_TRTSEQP_GSKADaMG_BDSMDE1"
                     mdr:DatePublished="2025-09-17" mdr:Status="Approved" mdr:SubmissionDataType="Char">
                <Description>
                    <TranslatedText xml:lang="en">Planned Sequence of Treatments</TranslatedText>
                </Description>
            </ItemDef>
            <ItemDef DataType="text" Length="200" Name="TRTSEQA" OID="IG_G_BDS_GSKADaMMDES1.IT_TRTSEQA_GSKADaMG_BDSMDE1"
                     mdr:DatePublished="2025-09-17" mdr:Status="Approved" mdr:SubmissionDataType="Char">
                <Description>
                    <TranslatedText xml:lang="en">Actual Sequence of Treatments</TranslatedText>
                </Description>
            </ItemDef>
            <ItemDef DataType="text" Length="100" Name="APERIODC"
                     OID="IG_G_BDS_GSKADaMMDES1.IT_APERIODC_GSKADaMG_BDSMDE1" mdr:Core="Permissible"
                     mdr:DatePublished="2025-09-17" mdr:Status="Approved" mdr:SubmissionDataType="Char">
                <Description>
                    <TranslatedText xml:lang="en">Period (C)</TranslatedText>
                </Description>
            </ItemDef>
            <ItemDef DataType="text" Length="100" Name="APHASE" OID="IG_G_BDS_GSKADaMMDES1.IT_APHASE_GSKADaMG_BDSMDE1"
                     mdr:Core="Permissible" mdr:DatePublished="2025-09-17" mdr:Status="Approved"
                     mdr:SubmissionDataType="Char">
                <Description>
                    <TranslatedText xml:lang="en">Phase</TranslatedText>
                </Description>
            </ItemDef>
            <ItemDef DataType="text" Length="200" Name="VISIT" OID="IG_G_BDS_GSKADaMMDES1.IT_VISIT_GSKADaMG_BDSMDE1"
                     mdr:Core="Permissible" mdr:DatePublished="2025-09-17" mdr:Status="Approved"
                     mdr:SubmissionDataType="Char">
                <Description>
                    <TranslatedText xml:lang="en">Visit Name</TranslatedText>
                </Description>
            </ItemDef>
            <ItemDef DataType="text" Length="200" Name="AVISIT" OID="IG_G_BDS_GSKADaMMDES1.IT_AVISIT_GSKADaMG_BDSMDE1"
                     mdr:DatePublished="2025-09-17" mdr:Status="Approved" mdr:SubmissionDataType="Char">
                <Description>
                    <TranslatedText xml:lang="en">Analysis Visit</TranslatedText>
                </Description>
            </ItemDef>
            <ItemDef DataType="text" Length="40" Name="ATPTREF" OID="IG_G_BDS_GSKADaMMDES1.IT_ATPTREF_GSKADaMG_BDSMDE1"
                     mdr:Core="Permissible" mdr:DatePublished="2025-09-17" mdr:Status="Approved"
                     mdr:SubmissionDataType="Char">
                <Description>
                    <TranslatedText xml:lang="en">Analysis Timepoint Reference</TranslatedText>
                </Description>
            </ItemDef>
            <ItemDef DataType="text" Length="40" Name="ATPT" OID="IG_G_BDS_GSKADaMMDES1.IT_ATPT_GSKADaMG_BDSMDE1"
                     mdr:DatePublished="2025-09-17" mdr:Status="Approved" mdr:SubmissionDataType="Char">
                <Description>
                    <TranslatedText xml:lang="en">Analysis Timepoint</TranslatedText>
                </Description>
            </ItemDef>
            <ItemDef DataType="text" Length="100" Name="PARCAT1" OID="IG_G_BDS_GSKADaMMDES1.IT_PARCAT1_GSKADaMG_BDSMDE1"
                     mdr:Core="Permissible" mdr:DatePublished="2025-09-17" mdr:Status="Approved"
                     mdr:SubmissionDataType="Char">
                <Description>
                    <TranslatedText xml:lang="en">Parameter Category 1</TranslatedText>
                </Description>
            </ItemDef>
            <ItemDef DataType="text" Length="200" Name="PARAM" OID="IG_G_BDS_GSKADaMMDES1.IT_PARAM_GSKADaMG_BDSMDE1"
                     mdr:Core="Required" mdr:DatePublished="2025-09-17" mdr:Status="Approved"
                     mdr:SubmissionDataType="Char">
                <Description>
                    <TranslatedText xml:lang="en">Parameter</TranslatedText>
                </Description>
            </ItemDef>
            <ItemDef DataType="text" Length="8" Name="PARAMCD" OID="IG_G_BDS_GSKADaMMDES1.IT_PARAMCD_GSKADaMG_BDSMDE1"
                     mdr:Core="Required" mdr:DatePublished="2025-09-17" mdr:Status="Approved"
                     mdr:SubmissionDataType="Char">
                <Description>
                    <TranslatedText xml:lang="en">Parameter Code</TranslatedText>
                </Description>
            </ItemDef>
            <ItemDef DataType="text" Length="200" Name="AVALC" OID="IG_G_BDS_GSKADaMMDES1.IT_AVALC_GSKADaMG_BDSMDE1"
                     mdr:DatePublished="2025-09-17" mdr:Status="Approved" mdr:SubmissionDataType="Char">
                <Description>
                    <TranslatedText xml:lang="en">Analysis Value (C)</TranslatedText>
                </Description>
            </ItemDef>
            <ItemDef DataType="text" Length="200" Name="BASEC" OID="IG_G_BDS_GSKADaMMDES1.IT_BASEC_GSKADaMG_BDSMDE1"
                     mdr:Core="Permissible" mdr:DatePublished="2025-09-17" mdr:Status="Approved"
                     mdr:SubmissionDataType="Char">
                <Description>
                    <TranslatedText xml:lang="en">Baseline Value (C)</TranslatedText>
                </Description>
            </ItemDef>
            <ItemDef DataType="text" Length="40" Name="AVALCAT1"
                     OID="IG_G_BDS_GSKADaMMDES1.IT_AVALCAT1_GSKADaMG_BDSMDE1" mdr:Core="Permissible"
                     mdr:DatePublished="2025-09-17" mdr:Status="Approved" mdr:SubmissionDataType="Char">
                <Description>
                    <TranslatedText xml:lang="en">Analysis Value Category 1</TranslatedText>
                </Description>
            </ItemDef>
            <ItemDef DataType="text" Length="8" Name="AVACA1CD" OID="IG_G_BDS_GSKADaMMDES1.IT_AVACA1CD_GSKADaMG_BDSMDE1"
                     mdr:Core="Permissible" mdr:DatePublished="2025-09-17" mdr:Status="Approved"
                     mdr:SubmissionDataType="Char">
                <Description>
                    <TranslatedText xml:lang="en">Analysis Category 1 Code</TranslatedText>
                </Description>
            </ItemDef>
            <ItemDef DataType="text" Length="50" Name="BASECAT1"
                     OID="IG_G_BDS_GSKADaMMDES1.IT_BASECAT1_GSKADaMG_BDSMDE1" mdr:Core="Permissible"
                     mdr:DatePublished="2025-09-17" mdr:Status="Approved" mdr:SubmissionDataType="Char">
                <Description>
                    <TranslatedText xml:lang="en">Baseline Category 1</TranslatedText>
                </Description>
            </ItemDef>
            <ItemDef DataType="text" Length="8" Name="BASCT1CD" OID="IG_G_BDS_GSKADaMMDES1.IT_BASCT1CD_GSKADaMG_BDSMDE1"
                     mdr:Core="Permissible" mdr:DatePublished="2025-09-17" mdr:Status="Approved"
                     mdr:SubmissionDataType="Char">
                <Description>
                    <TranslatedText xml:lang="en">Baseline Category 1 Code</TranslatedText>
                </Description>
            </ItemDef>
            <ItemDef DataType="text" Length="50" Name="CHGCAT1" OID="IG_G_BDS_GSKADaMMDES1.IT_CHGCAT1_GSKADaMG_BDSMDE1"
                     mdr:Core="Permissible" mdr:DatePublished="2025-09-17" mdr:Status="Approved"
                     mdr:SubmissionDataType="Char">
                <Description>
                    <TranslatedText xml:lang="en">Change from Baseline Category 1</TranslatedText>
                </Description>
            </ItemDef>
            <ItemDef DataType="text" Length="8" Name="CHGCA1CD" OID="IG_G_BDS_GSKADaMMDES1.IT_CHGCA1CD_GSKADaMG_BDSMDE1"
                     mdr:Core="Permissible" mdr:DatePublished="2025-09-17" mdr:Status="Approved"
                     mdr:SubmissionDataType="Char">
                <Description>
                    <TranslatedText xml:lang="en">Change from Baseline Category 1 Code</TranslatedText>
                </Description>
            </ItemDef>
            <ItemDef DataType="text" Length="8" Name="SRCDOM" OID="IG_G_BDS_GSKADaMMDES1.IT_SRCDOM_GSKADaMG_BDSMDE1"
                     mdr:Core="Permissible" mdr:DatePublished="2025-09-17" mdr:Status="Approved"
                     mdr:SubmissionDataType="Char">
                <Description>
                    <TranslatedText xml:lang="en">Source Data</TranslatedText>
                </Description>
            </ItemDef>
            <ItemDef DataType="text" Length="8" Name="SRCVAR" OID="IG_G_BDS_GSKADaMMDES1.IT_SRCVAR_GSKADaMG_BDSMDE1"
                     mdr:Core="Permissible" mdr:DatePublished="2025-09-17" mdr:Status="Approved"
                     mdr:SubmissionDataType="Char">
                <Description>
                    <TranslatedText xml:lang="en">Source Variable</TranslatedText>
                </Description>
            </ItemDef>
            <ItemDef DataType="text" Length="10" Name="ASPERC" OID="IG_G_BDS_GSKADaMMDES1.IT_ASPERC_GSKADaMG_BDSMDE1"
                     mdr:Core="Permissible" mdr:DatePublished="2025-09-17" mdr:Status="Approved"
                     mdr:SubmissionDataType="Char">
                <Description>
                    <TranslatedText xml:lang="en">Subperiod within Period (C)</TranslatedText>
                </Description>
            </ItemDef>
            <ItemDef DataType="integer" Length="8" Name="WEIGHTBL"
                     OID="IG_G_BDS_GSKADaMMDES1.IT_WEIGHTBL_GSKADaMG_BDSMDE1" mdr:Core="Permissible"
                     mdr:DatePublished="2025-09-17" mdr:Status="Approved" mdr:SubmissionDataType="Num">
                <Description>
                    <TranslatedText xml:lang="en">Weight (kg) at Baseline</TranslatedText>
                </Description>
            </ItemDef>
            <ItemDef DataType="integer" Length="8" Name="AVAL" OID="IG_G_BDS_GSKADaMMDES1.IT_AVAL_GSKADaMG_BDSMDE1"
                     mdr:DatePublished="2025-09-17" mdr:Status="Approved" mdr:SubmissionDataType="Num">
                <Description>
                    <TranslatedText xml:lang="en">Analysis Value</TranslatedText>
                </Description>
            </ItemDef>
            <ItemDef DataType="integer" Length="8" Name="AGE" OID="IG_G_BDS_GSKADaMMDES1.IT_AGE_GSKADaMG_BDSMDE1"
                     mdr:DatePublished="2025-09-17" mdr:Status="Approved" mdr:SubmissionDataType="Num">
                <Description>
                    <TranslatedText xml:lang="en">Age</TranslatedText>
                </Description>
            </ItemDef>
            <ItemDef DataType="integer" Length="8" Name="TRTPN" OID="IG_G_BDS_GSKADaMMDES1.IT_TRTPN_GSKADaMG_BDSMDE1"
                     mdr:DatePublished="2025-09-17" mdr:Status="Approved" mdr:SubmissionDataType="Num">
                <Description>
                    <TranslatedText xml:lang="en">Planned Treatment (N)</TranslatedText>
                </Description>
            </ItemDef>
            <ItemDef DataType="integer" Length="8" Name="TRTAN" OID="IG_G_BDS_GSKADaMMDES1.IT_TRTAN_GSKADaMG_BDSMDE1"
                     mdr:DatePublished="2025-09-17" mdr:Status="Approved" mdr:SubmissionDataType="Num">
                <Description>
                    <TranslatedText xml:lang="en">Actual Treatment (N)</TranslatedText>
                </Description>
            </ItemDef>
            <ItemDef DataType="integer" Length="8" Name="TRT01AN"
                     OID="IG_G_BDS_GSKADaMMDES1.IT_TRT01AN_GSKADaMG_BDSMDE1" mdr:DatePublished="2025-09-17"
                     mdr:Status="Approved" mdr:SubmissionDataType="Num">
                <Description>
                    <TranslatedText xml:lang="en">Actual Treatment for Period 01 (N)</TranslatedText>
                </Description>
            </ItemDef>
            <ItemDef DataType="integer" Length="8" Name="TRT01PN"
                     OID="IG_G_BDS_GSKADaMMDES1.IT_TRT01PN_GSKADaMG_BDSMDE1" mdr:DatePublished="2025-09-17"
                     mdr:Status="Approved" mdr:SubmissionDataType="Num">
                <Description>
                    <TranslatedText xml:lang="en">Planned Treatment for Period 01 (N)</TranslatedText>
                </Description>
            </ItemDef>
            <ItemDef DataType="integer" Length="8" Name="TRTSEQPN"
                     OID="IG_G_BDS_GSKADaMMDES1.IT_TRTSEQPN_GSKADaMG_BDSMDE1" mdr:DatePublished="2025-09-17"
                     mdr:Status="Approved" mdr:SubmissionDataType="Num">
                <Description>
                    <TranslatedText xml:lang="en">Planned Sequence of Treatments (N)</TranslatedText>
                </Description>
            </ItemDef>
            <ItemDef DataType="integer" Length="8" Name="TRTSEQAN"
                     OID="IG_G_BDS_GSKADaMMDES1.IT_TRTSEQAN_GSKADaMG_BDSMDE1" mdr:DatePublished="2025-09-17"
                     mdr:Status="Approved" mdr:SubmissionDataType="Num">
                <Description>
                    <TranslatedText xml:lang="en">Actual Sequence of Treatments (N)</TranslatedText>
                </Description>
            </ItemDef>
            <ItemDef DataType="integer" Length="8" Name="APERIOD"
                     OID="IG_G_BDS_GSKADaMMDES1.IT_APERIOD_GSKADaMG_BDSMDE1" mdr:Core="Permissible"
                     mdr:DatePublished="2025-09-17" mdr:Status="Approved" mdr:SubmissionDataType="Num">
                <Description>
                    <TranslatedText xml:lang="en">Period</TranslatedText>
                </Description>
            </ItemDef>
            <ItemDef DataType="integer" Length="8" Name="APHASEN"
                     OID="IG_G_BDS_GSKADaMMDES1.IT_APHASEN_GSKADaMG_BDSMDE1" mdr:Core="Permissible"
                     mdr:DatePublished="2025-09-17" mdr:Status="Approved" mdr:SubmissionDataType="Num">
                <Description>
                    <TranslatedText xml:lang="en">Phase (N)</TranslatedText>
                </Description>
            </ItemDef>
            <ItemDef DataType="integer" Length="8" Name="VISITNUM"
                     OID="IG_G_BDS_GSKADaMMDES1.IT_VISITNUM_GSKADaMG_BDSMDE1" mdr:Core="Permissible"
                     mdr:DatePublished="2025-09-17" mdr:Status="Approved" mdr:SubmissionDataType="Num">
                <Description>
                    <TranslatedText xml:lang="en">Visit Number</TranslatedText>
                </Description>
            </ItemDef>
            <ItemDef DataType="integer" Length="8" Name="AVISITN"
                     OID="IG_G_BDS_GSKADaMMDES1.IT_AVISITN_GSKADaMG_BDSMDE1" mdr:Core="Permissible"
                     mdr:DatePublished="2025-09-17" mdr:Status="Approved" mdr:SubmissionDataType="Num">
                <Description>
                    <TranslatedText xml:lang="en">Analysis Visit (N)</TranslatedText>
                </Description>
            </ItemDef>
            <ItemDef DataType="integer" Length="8" Name="ATPTN" OID="IG_G_BDS_GSKADaMMDES1.IT_ATPTN_GSKADaMG_BDSMDE1"
                     mdr:Core="Permissible" mdr:DatePublished="2025-09-17" mdr:Status="Approved"
                     mdr:SubmissionDataType="Num">
                <Description>
                    <TranslatedText xml:lang="en">Analysis Timepoint (N)</TranslatedText>
                </Description>
            </ItemDef>
            <ItemDef DataType="integer" Length="8" Name="APERADY"
                     OID="IG_G_BDS_GSKADaMMDES1.IT_APERADY_GSKADaMG_BDSMDE1" mdr:Core="Permissible"
                     mdr:DatePublished="2025-09-17" mdr:Status="Approved" mdr:SubmissionDataType="Num">
                <Description>
                    <TranslatedText xml:lang="en">Analysis Relative Day in Period</TranslatedText>
                </Description>
            </ItemDef>
            <ItemDef DataType="integer" Length="8" Name="ADT" OID="IG_G_BDS_GSKADaMMDES1.IT_ADT_GSKADaMG_BDSMDE1"
                     mdr:Core="Permissible" mdr:DatePublished="2025-09-17" mdr:Status="Approved"
                     mdr:SubmissionDataType="Num">
                <Description>
                    <TranslatedText xml:lang="en">Analysis Date</TranslatedText>
                </Description>
            </ItemDef>
            <ItemDef DataType="integer" Length="8" Name="ATM" OID="IG_G_BDS_GSKADaMMDES1.IT_ATM_GSKADaMG_BDSMDE1"
                     mdr:Core="Permissible" mdr:DatePublished="2025-09-17" mdr:Status="Approved"
                     mdr:SubmissionDataType="Num">
                <Description>
                    <TranslatedText xml:lang="en">Analysis Time</TranslatedText>
                </Description>
            </ItemDef>
            <ItemDef DataType="integer" Length="8" Name="ADTM" OID="IG_G_BDS_GSKADaMMDES1.IT_ADTM_GSKADaMG_BDSMDE1"
                     mdr:Core="Permissible" mdr:DatePublished="2025-09-17" mdr:Status="Approved"
                     mdr:SubmissionDataType="Num">
                <Description>
                    <TranslatedText xml:lang="en">Analysis Datetime</TranslatedText>
                </Description>
            </ItemDef>
            <ItemDef DataType="integer" Length="8" Name="ADY" OID="IG_G_BDS_GSKADaMMDES1.IT_ADY_GSKADaMG_BDSMDE1"
                     mdr:Core="Permissible" mdr:DatePublished="2025-09-17" mdr:Status="Approved"
                     mdr:SubmissionDataType="Num">
                <Description>
                    <TranslatedText xml:lang="en">Analysis Relative Day</TranslatedText>
                </Description>
            </ItemDef>
            <ItemDef DataType="integer" Length="8" Name="ASTDT" OID="IG_G_BDS_GSKADaMMDES1.IT_ASTDT_GSKADaMG_BDSMDE1"
                     mdr:Core="Permissible" mdr:DatePublished="2025-09-17" mdr:Status="Approved"
                     mdr:SubmissionDataType="Num">
                <Description>
                    <TranslatedText xml:lang="en">Analysis Start Date</TranslatedText>
                </Description>
            </ItemDef>
            <ItemDef DataType="integer" Length="8" Name="ASTTM" OID="IG_G_BDS_GSKADaMMDES1.IT_ASTTM_GSKADaMG_BDSMDE1"
                     mdr:Core="Permissible" mdr:DatePublished="2025-09-17" mdr:Status="Approved"
                     mdr:SubmissionDataType="Num">
                <Description>
                    <TranslatedText xml:lang="en">Analysis Start Time</TranslatedText>
                </Description>
            </ItemDef>
            <ItemDef DataType="integer" Length="8" Name="ASTDTM" OID="IG_G_BDS_GSKADaMMDES1.IT_ASTDTM_GSKADaMG_BDSMDE1"
                     mdr:Core="Permissible" mdr:DatePublished="2025-09-17" mdr:Status="Approved"
                     mdr:SubmissionDataType="Num">
                <Description>
                    <TranslatedText xml:lang="en">Analysis Start Datetime</TranslatedText>
                </Description>
            </ItemDef>
            <ItemDef DataType="integer" Length="8" Name="ASTDY" OID="IG_G_BDS_GSKADaMMDES1.IT_ASTDY_GSKADaMG_BDSMDE1"
                     mdr:Core="Permissible" mdr:DatePublished="2025-09-17" mdr:Status="Approved"
                     mdr:SubmissionDataType="Num">
                <Description>
                    <TranslatedText xml:lang="en">Analysis Start Relative Day</TranslatedText>
                </Description>
            </ItemDef>
            <ItemDef DataType="integer" Length="8" Name="AENDT" OID="IG_G_BDS_GSKADaMMDES1.IT_AENDT_GSKADaMG_BDSMDE1"
                     mdr:Core="Permissible" mdr:DatePublished="2025-09-17" mdr:Status="Approved"
                     mdr:SubmissionDataType="Num">
                <Description>
                    <TranslatedText xml:lang="en">Analysis End Date</TranslatedText>
                </Description>
            </ItemDef>
            <ItemDef DataType="integer" Length="8" Name="AENTM" OID="IG_G_BDS_GSKADaMMDES1.IT_AENTM_GSKADaMG_BDSMDE1"
                     mdr:Core="Permissible" mdr:DatePublished="2025-09-17" mdr:Status="Approved"
                     mdr:SubmissionDataType="Num">
                <Description>
                    <TranslatedText xml:lang="en">Analysis End Time</TranslatedText>
                </Description>
            </ItemDef>
            <ItemDef DataType="integer" Length="8" Name="AENDTM" OID="IG_G_BDS_GSKADaMMDES1.IT_AENDTM_GSKADaMG_BDSMDE1"
                     mdr:Core="Permissible" mdr:DatePublished="2025-09-17" mdr:Status="Approved"
                     mdr:SubmissionDataType="Num">
                <Description>
                    <TranslatedText xml:lang="en">Analysis End Datetime</TranslatedText>
                </Description>
            </ItemDef>
            <ItemDef DataType="integer" Length="8" Name="AENDY" OID="IG_G_BDS_GSKADaMMDES1.IT_AENDY_GSKADaMG_BDSMDE1"
                     mdr:Core="Permissible" mdr:DatePublished="2025-09-17" mdr:Status="Approved"
                     mdr:SubmissionDataType="Num">
                <Description>
                    <TranslatedText xml:lang="en">Analysis End Relative Day</TranslatedText>
                </Description>
            </ItemDef>
            <ItemDef DataType="integer" Length="8" Name="PARAMN" OID="IG_G_BDS_GSKADaMMDES1.IT_PARAMN_GSKADaMG_BDSMDE1"
                     mdr:Core="Permissible" mdr:DatePublished="2025-09-17" mdr:Status="Approved"
                     mdr:SubmissionDataType="Num">
                <Description>
                    <TranslatedText xml:lang="en">Parameter (N)</TranslatedText>
                </Description>
            </ItemDef>
            <ItemDef DataType="integer" Length="8" Name="BASE" OID="IG_G_BDS_GSKADaMMDES1.IT_BASE_GSKADaMG_BDSMDE1"
                     mdr:Core="Permissible" mdr:DatePublished="2025-09-17" mdr:Status="Approved"
                     mdr:SubmissionDataType="Num">
                <Description>
                    <TranslatedText xml:lang="en">Baseline Value</TranslatedText>
                </Description>
            </ItemDef>
            <ItemDef DataType="integer" Length="8" Name="CHG" OID="IG_G_BDS_GSKADaMMDES1.IT_CHG_GSKADaMG_BDSMDE1"
                     mdr:Core="Permissible" mdr:DatePublished="2025-09-17" mdr:Status="Approved"
                     mdr:SubmissionDataType="Num">
                <Description>
                    <TranslatedText xml:lang="en">Change from Baseline</TranslatedText>
                </Description>
            </ItemDef>
            <ItemDef DataType="integer" Length="8" Name="A1LO" OID="IG_G_BDS_GSKADaMMDES1.IT_A1LO_GSKADaMG_BDSMDE1"
                     mdr:Core="Permissible" mdr:DatePublished="2025-09-17" mdr:Status="Approved"
                     mdr:SubmissionDataType="Num">
                <Description>
                    <TranslatedText xml:lang="en">Analysis Range 1 Lower Limit</TranslatedText>
                </Description>
            </ItemDef>
            <ItemDef DataType="integer" Length="8" Name="A1HI" OID="IG_G_BDS_GSKADaMMDES1.IT_A1HI_GSKADaMG_BDSMDE1"
                     mdr:Core="Permissible" mdr:DatePublished="2025-09-17" mdr:Status="Approved"
                     mdr:SubmissionDataType="Num">
                <Description>
                    <TranslatedText xml:lang="en">Analysis Range 1 Upper Limit</TranslatedText>
                </Description>
            </ItemDef>
            <ItemDef DataType="integer" Length="8" Name="PCHG" OID="IG_G_BDS_GSKADaMMDES1.IT_PCHG_GSKADaMG_BDSMDE1"
                     mdr:Core="Permissible" mdr:DatePublished="2025-09-17" mdr:Status="Approved"
                     mdr:SubmissionDataType="Num">
                <Description>
                    <TranslatedText xml:lang="en">Percent Change from Baseline</TranslatedText>
                </Description>
            </ItemDef>
            <ItemDef DataType="integer" Length="8" Name="SRCSEQ" OID="IG_G_BDS_GSKADaMMDES1.IT_SRCSEQ_GSKADaMG_BDSMDE1"
                     mdr:Core="Permissible" mdr:DatePublished="2025-09-17" mdr:Status="Approved"
                     mdr:SubmissionDataType="Num">
                <Description>
                    <TranslatedText xml:lang="en">Source Sequence Number</TranslatedText>
                </Description>
            </ItemDef>
            <ItemDef DataType="integer" Length="8" Name="ASEQ" OID="IG_G_BDS_GSKADaMMDES1.IT_ASEQ_GSKADaMG_BDSMDE1"
                     mdr:Core="Permissible" mdr:DatePublished="2025-09-17" mdr:Status="Approved"
                     mdr:SubmissionDataType="Num">
                <Description>
                    <TranslatedText xml:lang="en">Analysis Sequence Number</TranslatedText>
                </Description>
            </ItemDef>
            <ItemDef DataType="integer" Length="8" Name="ASPER" OID="IG_G_BDS_GSKADaMMDES1.IT_ASPER_GSKADaMG_BDSMDE1"
                     mdr:Core="Permissible" mdr:DatePublished="2025-09-17" mdr:Status="Approved"
                     mdr:SubmissionDataType="Num">
                <Description>
                    <TranslatedText xml:lang="en">Subperiod within Period</TranslatedText>
                </Description>
            </ItemDef>
            <ItemDef DataType="text" Length="1" Name="ENRLFL" OID="IG_G_BDS_GSKADaMMDES1.IT_ENRLFL_GSKADaMG_BDSMDE1"
                     mdr:DatePublished="2025-09-17" mdr:Status="Approved" mdr:SubmissionDataType="Char">
                <Description>
                    <TranslatedText xml:lang="en">Enrolled Population Flag</TranslatedText>
                </Description>
                <CodeListRef CodeListOID="CL_NY_GSKC66742VD1"/>
            </ItemDef>
            <ItemDef DataType="text" Length="1" Name="FASFL" OID="IG_G_BDS_GSKADaMMDES1.IT_FASFL_GSKADaMG_BDSMDE1"
                     mdr:DatePublished="2025-09-17" mdr:Status="Approved" mdr:SubmissionDataType="Char">
                <Description>
                    <TranslatedText xml:lang="en">Full Analysis Set Population Flag</TranslatedText>
                </Description>
                <CodeListRef CodeListOID="CL_NY_GSKC66742VD1"/>
            </ItemDef>
            <ItemDef DataType="text" Length="1" Name="ITTFL" OID="IG_G_BDS_GSKADaMMDES1.IT_ITTFL_GSKADaMG_BDSMDE1"
                     mdr:DatePublished="2025-09-17" mdr:Status="Approved" mdr:SubmissionDataType="Char">
                <Description>
                    <TranslatedText xml:lang="en">Intent-To-Treat Population Flag</TranslatedText>
                </Description>
                <CodeListRef CodeListOID="CL_NY_GSKC66742VD1"/>
            </ItemDef>
            <ItemDef DataType="text" Length="1" Name="SAFFL" OID="IG_G_BDS_GSKADaMMDES1.IT_SAFFL_GSKADaMG_BDSMDE1"
                     mdr:DatePublished="2025-09-17" mdr:Status="Approved" mdr:SubmissionDataType="Char">
                <Description>
                    <TranslatedText xml:lang="en">Safety Population Flag</TranslatedText>
                </Description>
                <CodeListRef CodeListOID="CL_NY_GSKC66742VD1"/>
            </ItemDef>
            <ItemDef DataType="text" Length="1" Name="PPROTFL" OID="IG_G_BDS_GSKADaMMDES1.IT_PPROTFL_GSKADaMG_BDSMDE1"
                     mdr:DatePublished="2025-09-17" mdr:Status="Approved" mdr:SubmissionDataType="Char">
                <Description>
                    <TranslatedText xml:lang="en">Per-Protocol Population Flag</TranslatedText>
                </Description>
                <CodeListRef CodeListOID="CL_NY_GSKC66742VD1"/>
            </ItemDef>
            <ItemDef DataType="text" Length="1" Name="SEX" OID="IG_G_BDS_GSKADaMMDES1.IT_SEX_GSKADaMG_BDSMDE1"
                     mdr:DatePublished="2025-09-17" mdr:Status="Approved" mdr:SubmissionDataType="Char">
                <Description>
                    <TranslatedText xml:lang="en">Sex</TranslatedText>
                </Description>
                <CodeListRef CodeListOID="CL_SEX_GSKC66731VD1"/>
            </ItemDef>
            <ItemDef DataType="text" Length="100" Name="ARACE" OID="IG_G_BDS_GSKADaMMDES1.IT_ARACE_GSKADaMG_BDSMDE1"
                     mdr:DatePublished="2025-09-17" mdr:Status="Approved" mdr:SubmissionDataType="Char">
                <Description>
                    <TranslatedText xml:lang="en">Analysis Race</TranslatedText>
                </Description>
                <CodeListRef CodeListOID="CL_ARACE_S404005VD1"/>
            </ItemDef>
            <ItemDef DataType="text" Length="100" Name="ACOUNTRY"
                     OID="IG_G_BDS_GSKADaMMDES1.IT_ACOUNTRY_GSKADaMG_BDSMDE1" mdr:Core="Permissible"
                     mdr:DatePublished="2025-09-17" mdr:Status="Approved" mdr:SubmissionDataType="Char">
                <Description>
                    <TranslatedText xml:lang="en">Analysis Country</TranslatedText>
                </Description>
                <CodeListRef CodeListOID="CL_ACOUNTRY_S404008VD1"/>
            </ItemDef>
            <ItemDef DataType="text" Length="8" Name="ADTF" OID="IG_G_BDS_GSKADaMMDES1.IT_ADTF_GSKADaMG_BDSMDE1"
                     mdr:DatePublished="2025-09-17" mdr:Status="Approved" mdr:SubmissionDataType="Char">
                <Description>
                    <TranslatedText xml:lang="en">Analysis Date Imputation Flag</TranslatedText>
                </Description>
                <CodeListRef CodeListOID="CL_DATEFL_S4040026VD1"/>
            </ItemDef>
            <ItemDef DataType="text" Length="8" Name="ASTDTF" OID="IG_G_BDS_GSKADaMMDES1.IT_ASTDTF_GSKADaMG_BDSMDE1"
                     mdr:DatePublished="2025-09-17" mdr:Status="Approved" mdr:SubmissionDataType="Char">
                <Description>
                    <TranslatedText xml:lang="en">Analysis Start Date Imputation Flag</TranslatedText>
                </Description>
                <CodeListRef CodeListOID="CL_DATEFL_S4040026VD1"/>
            </ItemDef>
            <ItemDef DataType="text" Length="8" Name="AENDTF" OID="IG_G_BDS_GSKADaMMDES1.IT_AENDTF_GSKADaMG_BDSMDE1"
                     mdr:DatePublished="2025-09-17" mdr:Status="Approved" mdr:SubmissionDataType="Char">
                <Description>
                    <TranslatedText xml:lang="en">Analysis End Date Imputation Flag</TranslatedText>
                </Description>
                <CodeListRef CodeListOID="CL_DATEFL_S4040026VD1"/>
            </ItemDef>
            <ItemDef DataType="text" Length="20" Name="DTYPE" OID="IG_G_BDS_GSKADaMMDES1.IT_DTYPE_GSKADaMG_BDSMDE1"
                     mdr:DatePublished="2025-09-17" mdr:Status="Approved" mdr:SubmissionDataType="Char">
                <Description>
                    <TranslatedText xml:lang="en">Derivation Type</TranslatedText>
                </Description>
                <CodeListRef CodeListOID="CL_DTYPE_S4040032VD1"/>
            </ItemDef>
            <ItemDef DataType="text" Length="20" Name="A1IND" OID="IG_G_BDS_GSKADaMMDES1.IT_A1IND_GSKADaMG_BDSMDE1"
                     mdr:Core="Permissible" mdr:DatePublished="2025-09-17" mdr:Status="Approved"
                     mdr:SubmissionDataType="Char">
                <Description>
                    <TranslatedText xml:lang="en">Analysis Range 1 Full Text</TranslatedText>
                </Description>
                <CodeListRef CodeListOID="CL_A1IND_S404001VD1"/>
            </ItemDef>
            <ItemDef DataType="text" Length="1" Name="ANL01FL" OID="IG_G_BDS_GSKADaMMDES1.IT_ANL01FL_GSKADaMG_BDSMDE1"
                     mdr:Core="Permissible" mdr:DatePublished="2025-09-17" mdr:Status="Approved"
                     mdr:SubmissionDataType="Char">
                <Description>
                    <TranslatedText xml:lang="en">Analysis Flag 01</TranslatedText>
                </Description>
                <CodeListRef CodeListOID="CL_Y_BLANK_S404004VD1"/>
            </ItemDef>
            <ItemDef DataType="text" Length="1" Name="ABLFL" OID="IG_G_BDS_GSKADaMMDES1.IT_ABLFL_GSKADaMG_BDSMDE1"
                     mdr:DatePublished="2025-09-17" mdr:Status="Approved" mdr:SubmissionDataType="Char">
                <Description>
                    <TranslatedText xml:lang="en">Baseline Record Flag</TranslatedText>
                </Description>
                <CodeListRef CodeListOID="CL_Y_BLANK_S404004VD1"/>
            </ItemDef>
            <ItemDef DataType="text" Length="8" Name="ARACEN" OID="IG_G_BDS_GSKADaMMDES1.IT_ARACEN_GSKADaMG_BDSMDE1"
                     mdr:DatePublished="2025-09-17" mdr:Status="Approved" mdr:SubmissionDataType="Char">
                <Description>
                    <TranslatedText xml:lang="en">Analysis Race (N)</TranslatedText>
                </Description>
                <CodeListRef CodeListOID="CL_ARACEN_S404006VD1"/>
            </ItemDef>
            <ItemDef DataType="text" Length="8" Name="SEXN" OID="IG_G_BDS_GSKADaMMDES1.IT_SEXN_GSKADaMG_BDSMDE1"
                     mdr:DatePublished="2025-09-17" mdr:Status="Approved" mdr:SubmissionDataType="Char">
                <Description>
                    <TranslatedText xml:lang="en">Sex (N)</TranslatedText>
                </Description>
                <CodeListRef CodeListOID="CL_SEXN_S404007VD1"/>
            </ItemDef>
            <ItemDef DataType="text" Length="2" Name="A1INDCD" OID="IG_G_BDS_GSKADaMMDES1.IT_A1INDCD_GSKADaMG_BDSMDE1"
                     mdr:Core="Permissible" mdr:DatePublished="2025-09-17" mdr:Status="Approved"
                     mdr:SubmissionDataType="Char">
                <Description>
                    <TranslatedText xml:lang="en">Analysis Range 1 Code Indicator</TranslatedText>
                </Description>
                <CodeListRef CodeListOID="CL_A1INDCD_S404002VD1"/>
            </ItemDef>
            <ItemDef DataType="text" Length="8" Name="ATMF" OID="IG_G_BDS_GSKADaMMDES1.IT_ATMF_GSKADaMG_BDSMDE1"
                     mdr:DatePublished="2025-09-17" mdr:Status="Approved" mdr:SubmissionDataType="Char">
                <Description>
                    <TranslatedText xml:lang="en">Analysis Time Imputation Flag</TranslatedText>
                </Description>
                <CodeListRef CodeListOID="CL_TIMEFL_S4040048VD1"/>
            </ItemDef>
            <ItemDef DataType="text" Length="8" Name="ASTTMF" OID="IG_G_BDS_GSKADaMMDES1.IT_ASTTMF_GSKADaMG_BDSMDE1"
                     mdr:DatePublished="2025-09-17" mdr:Status="Approved" mdr:SubmissionDataType="Char">
                <Description>
                    <TranslatedText xml:lang="en">Analysis Start Time Imputation Flag</TranslatedText>
                </Description>
                <CodeListRef CodeListOID="CL_TIMEFL_S4040048VD1"/>
            </ItemDef>
            <ItemDef DataType="text" Length="8" Name="AENTMF" OID="IG_G_BDS_GSKADaMMDES1.IT_AENTMF_GSKADaMG_BDSMDE1"
                     mdr:DatePublished="2025-09-17" mdr:Status="Approved" mdr:SubmissionDataType="Char">
                <Description>
                    <TranslatedText xml:lang="en">Analysis End Time Imputation Flag</TranslatedText>
                </Description>
                <CodeListRef CodeListOID="CL_TIMEFL_S4040048VD1"/>
            </ItemDef>
            <ItemDef DataType="text" Length="9" Name="STUDYID" OID="IG_ADVS_GSKADaMMDES1.IT_STUDYID_GSKADaMADVSMDE1"
                     mdr:Core="Required" mdr:DatePublished="2025-09-17" mdr:Status="Approved"
                     mdr:SubmissionDataType="Char">
                <Description>
                    <TranslatedText xml:lang="en">Study Identifier</TranslatedText>
                </Description>
            </ItemDef>
            <ItemDef DataType="text" Length="30" Name="USUBJID" OID="IG_ADVS_GSKADaMMDES1.IT_USUBJID_GSKADaMADVSMDE1"
                     mdr:Core="Required" mdr:DatePublished="2025-09-17" mdr:Status="Approved"
                     mdr:SubmissionDataType="Char">
                <Description>
                    <TranslatedText xml:lang="en">Unique Subject Identifier</TranslatedText>
                </Description>
            </ItemDef>
            <ItemDef DataType="text" Length="20" Name="SUBJID" OID="IG_ADVS_GSKADaMMDES1.IT_SUBJID_GSKADaMADVSMDE1"
                     mdr:Core="Required" mdr:DatePublished="2025-09-17" mdr:Status="Approved"
                     mdr:SubmissionDataType="Char">
                <Description>
                    <TranslatedText xml:lang="en">Subject Identifier for the Study</TranslatedText>
                </Description>
            </ItemDef>
            <ItemDef DataType="text" Length="10" Name="SITEID" OID="IG_ADVS_GSKADaMMDES1.IT_SITEID_GSKADaMADVSMDE1"
                     mdr:Core="Required" mdr:DatePublished="2025-09-17" mdr:Status="Approved"
                     mdr:SubmissionDataType="Char">
                <Description>
                    <TranslatedText xml:lang="en">Study Site Identifier</TranslatedText>
                </Description>
            </ItemDef>
            <ItemDef DataType="text" Length="100" Name="TRTP" OID="IG_ADVS_GSKADaMMDES1.IT_TRTP_GSKADaMADVSMDE1"
                     mdr:DatePublished="2025-09-17" mdr:Status="Approved" mdr:SubmissionDataType="Char">
                <Description>
                    <TranslatedText xml:lang="en">Planned Treatment</TranslatedText>
                </Description>
            </ItemDef>
            <ItemDef DataType="text" Length="100" Name="TRTA" OID="IG_ADVS_GSKADaMMDES1.IT_TRTA_GSKADaMADVSMDE1"
                     mdr:DatePublished="2025-09-17" mdr:Status="Approved" mdr:SubmissionDataType="Char">
                <Description>
                    <TranslatedText xml:lang="en">Actual Treatment</TranslatedText>
                </Description>
            </ItemDef>
            <ItemDef DataType="text" Length="100" Name="TRT01A" OID="IG_ADVS_GSKADaMMDES1.IT_TRT01A_GSKADaMADVSMDE1"
                     mdr:DatePublished="2025-09-17" mdr:Status="Approved" mdr:SubmissionDataType="Char">
                <Description>
                    <TranslatedText xml:lang="en">Actual Treatment for Period 01</TranslatedText>
                </Description>
            </ItemDef>
            <ItemDef DataType="text" Length="100" Name="TRT01P" OID="IG_ADVS_GSKADaMMDES1.IT_TRT01P_GSKADaMADVSMDE1"
                     mdr:Core="Required" mdr:DatePublished="2025-09-17" mdr:Status="Approved"
                     mdr:SubmissionDataType="Char">
                <Description>
                    <TranslatedText xml:lang="en">Planned Treatment for Period 01</TranslatedText>
                </Description>
            </ItemDef>
            <ItemDef DataType="text" Length="200" Name="TRTSEQP" OID="IG_ADVS_GSKADaMMDES1.IT_TRTSEQP_GSKADaMADVSMDE1"
                     mdr:DatePublished="2025-09-17" mdr:Status="Approved" mdr:SubmissionDataType="Char">
                <Description>
                    <TranslatedText xml:lang="en">Planned Sequence of Treatments</TranslatedText>
                </Description>
            </ItemDef>
            <ItemDef DataType="text" Length="200" Name="TRTSEQA" OID="IG_ADVS_GSKADaMMDES1.IT_TRTSEQA_GSKADaMADVSMDE1"
                     mdr:DatePublished="2025-09-17" mdr:Status="Approved" mdr:SubmissionDataType="Char">
                <Description>
                    <TranslatedText xml:lang="en">Actual Sequence of Treatments</TranslatedText>
                </Description>
            </ItemDef>
            <ItemDef DataType="text" Length="100" Name="APERIODC" OID="IG_ADVS_GSKADaMMDES1.IT_APERIODC_GSKADaMADVSMDE1"
                     mdr:Core="Permissible" mdr:DatePublished="2025-09-17" mdr:Status="Approved"
                     mdr:SubmissionDataType="Char">
                <Description>
                    <TranslatedText xml:lang="en">Period (C)</TranslatedText>
                </Description>
            </ItemDef>
            <ItemDef DataType="text" Length="100" Name="APHASE" OID="IG_ADVS_GSKADaMMDES1.IT_APHASE_GSKADaMADVSMDE1"
                     mdr:Core="Permissible" mdr:DatePublished="2025-09-17" mdr:Status="Approved"
                     mdr:SubmissionDataType="Char">
                <Description>
                    <TranslatedText xml:lang="en">Phase</TranslatedText>
                </Description>
            </ItemDef>
            <ItemDef DataType="text" Length="200" Name="AVISIT" OID="IG_ADVS_GSKADaMMDES1.IT_AVISIT_GSKADaMADVSMDE1"
                     mdr:DatePublished="2025-09-17" mdr:Status="Approved" mdr:SubmissionDataType="Char">
                <Description>
                    <TranslatedText xml:lang="en">Analysis Visit</TranslatedText>
                </Description>
            </ItemDef>
            <ItemDef DataType="text" Length="40" Name="ATPTREF" OID="IG_ADVS_GSKADaMMDES1.IT_ATPTREF_GSKADaMADVSMDE1"
                     mdr:Core="Permissible" mdr:DatePublished="2025-09-17" mdr:Status="Approved"
                     mdr:SubmissionDataType="Char">
                <Description>
                    <TranslatedText xml:lang="en">Analysis Timepoint Reference</TranslatedText>
                </Description>
            </ItemDef>
            <ItemDef DataType="text" Length="40" Name="ATPT" OID="IG_ADVS_GSKADaMMDES1.IT_ATPT_GSKADaMADVSMDE1"
                     mdr:DatePublished="2025-09-17" mdr:Status="Approved" mdr:SubmissionDataType="Char">
                <Description>
                    <TranslatedText xml:lang="en">Analysis Timepoint</TranslatedText>
                </Description>
            </ItemDef>
            <ItemDef DataType="text" Length="100" Name="ASPERC" OID="IG_ADVS_GSKADaMMDES1.IT_ASPERC_GSKADaMADVSMDE1"
                     mdr:Core="Permissible" mdr:DatePublished="2025-09-17" mdr:Status="Approved"
                     mdr:SubmissionDataType="Char">
                <Description>
                    <TranslatedText xml:lang="en">Subperiod within Period (C)</TranslatedText>
                </Description>
            </ItemDef>
            <ItemDef DataType="text" Length="100" Name="VSLOC" OID="IG_ADVS_GSKADaMMDES1.IT_VSLOC_GSKADaMADVSMDE1"
                     mdr:DatePublished="2025-09-17" mdr:Status="Approved" mdr:SubmissionDataType="Char">
                <Description>
                    <TranslatedText xml:lang="en">Location of Vital Signs Measurement</TranslatedText>
                </Description>
            </ItemDef>
            <ItemDef DataType="text" Length="100" Name="PARCAT1" OID="IG_ADVS_GSKADaMMDES1.IT_PARCAT1_GSKADaMADVSMDE1"
                     mdr:DatePublished="2025-09-17" mdr:Status="Approved" mdr:SubmissionDataType="Char">
                <Description>
                    <TranslatedText xml:lang="en">Parameter Category 1</TranslatedText>
                </Description>
            </ItemDef>
            <ItemDef DataType="text" Length="200" Name="PARAMLBL" OID="IG_ADVS_GSKADaMMDES1.IT_PARAMLBL_GSKADaMADVSMDE1"
                     mdr:DatePublished="2025-09-17" mdr:Status="Approved" mdr:SubmissionDataType="Char">
                <Description>
                    <TranslatedText xml:lang="en">Parameter Label</TranslatedText>
                </Description>
            </ItemDef>
            <ItemDef DataType="text" Length="200" Name="AVALC" OID="IG_ADVS_GSKADaMMDES1.IT_AVALC_GSKADaMADVSMDE1"
                     mdr:DatePublished="2025-09-17" mdr:Status="Approved" mdr:SubmissionDataType="Char">
                <Description>
                    <TranslatedText xml:lang="en">Analysis Value (C)</TranslatedText>
                </Description>
            </ItemDef>
            <ItemDef DataType="text" Length="1" Name="ANRINDCD" OID="IG_ADVS_GSKADaMMDES1.IT_ANRINDCD_GSKADaMADVSMDE1"
                     mdr:Core="Permissible" mdr:DatePublished="2025-09-17" mdr:Status="Approved"
                     mdr:SubmissionDataType="Char">
                <Description>
                    <TranslatedText xml:lang="en">Analysis Reference Range Code Indicator</TranslatedText>
                </Description>
            </ItemDef>
            <ItemDef DataType="text" Length="40" Name="ANRIND" OID="IG_ADVS_GSKADaMMDES1.IT_ANRIND_GSKADaMADVSMDE1"
                     mdr:Core="Permissible" mdr:DatePublished="2025-09-17" mdr:Status="Approved"
                     mdr:SubmissionDataType="Char">
                <Description>
                    <TranslatedText xml:lang="en">Analysis Reference Range Indicator</TranslatedText>
                </Description>
            </ItemDef>
            <ItemDef DataType="text" Length="200" Name="BASEC" OID="IG_ADVS_GSKADaMMDES1.IT_BASEC_GSKADaMADVSMDE1"
                     mdr:DatePublished="2025-09-17" mdr:Status="Approved" mdr:SubmissionDataType="Char">
                <Description>
                    <TranslatedText xml:lang="en">Baseline Value (C)</TranslatedText>
                </Description>
            </ItemDef>
            <ItemDef DataType="text" Length="60" Name="B2IND" OID="IG_ADVS_GSKADaMMDES1.IT_B2IND_GSKADaMADVSMDE1"
                     mdr:DatePublished="2025-09-17" mdr:Status="Approved" mdr:SubmissionDataType="Char">
                <Description>
                    <TranslatedText xml:lang="en">Baseline Analysis Range 2 Indicator</TranslatedText>
                </Description>
            </ItemDef>
            <ItemDef DataType="text" Length="8" Name="SRCDOM" OID="IG_ADVS_GSKADaMMDES1.IT_SRCDOM_GSKADaMADVSMDE1"
                     mdr:DatePublished="2025-09-17" mdr:Status="Approved" mdr:SubmissionDataType="Char">
                <Description>
                    <TranslatedText xml:lang="en">Source Data</TranslatedText>
                </Description>
            </ItemDef>
            <ItemDef DataType="text" Length="8" Name="SRCVAR" OID="IG_ADVS_GSKADaMMDES1.IT_SRCVAR_GSKADaMADVSMDE1"
                     mdr:DatePublished="2025-09-17" mdr:Status="Approved" mdr:SubmissionDataType="Char">
                <Description>
                    <TranslatedText xml:lang="en">Source Variable</TranslatedText>
                </Description>
            </ItemDef>
            <ItemDef DataType="text" Length="100" Name="VISIT" OID="IG_ADVS_GSKADaMMDES1.IT_VISIT_GSKADaMADVSMDE1"
                     mdr:DatePublished="2025-09-17" mdr:Status="Approved" mdr:SubmissionDataType="Char">
                <Description>
                    <TranslatedText xml:lang="en">Visit Name</TranslatedText>
                </Description>
            </ItemDef>
            <ItemDef DataType="datetime" Name="VSDTC" OID="IG_ADVS_GSKADaMMDES1.IT_VSDTC_GSKADaMADVSMDE1"
                     mdr:Core="Permissible" mdr:DatePublished="2025-09-17" mdr:Status="Approved"
                     mdr:SubmissionDataType="Char">
                <Description>
                    <TranslatedText xml:lang="en">Date/Time of Measurements</TranslatedText>
                </Description>
            </ItemDef>
            <ItemDef DataType="integer" Length="8" Name="WEIGHTBL"
                     OID="IG_ADVS_GSKADaMMDES1.IT_WEIGHTBL_GSKADaMADVSMDE1" mdr:Core="Permissible"
                     mdr:DatePublished="2025-09-17" mdr:Status="Approved" mdr:SubmissionDataType="Num">
                <Description>
                    <TranslatedText xml:lang="en">Weight (kg) at Baseline</TranslatedText>
                </Description>
            </ItemDef>
            <ItemDef DataType="integer" Length="8" Name="AVAL" OID="IG_ADVS_GSKADaMMDES1.IT_AVAL_GSKADaMADVSMDE1"
                     mdr:Core="Required" mdr:DatePublished="2025-09-17" mdr:Status="Approved"
                     mdr:SubmissionDataType="Num">
                <Description>
                    <TranslatedText xml:lang="en">Analysis Value</TranslatedText>
                </Description>
            </ItemDef>
            <ItemDef DataType="integer" Length="8" Name="AGE" OID="IG_ADVS_GSKADaMMDES1.IT_AGE_GSKADaMADVSMDE1"
                     mdr:DatePublished="2025-09-17" mdr:Status="Approved" mdr:SubmissionDataType="Num">
                <Description>
                    <TranslatedText xml:lang="en">Age</TranslatedText>
                </Description>
            </ItemDef>
            <ItemDef DataType="integer" Length="8" Name="TRTPN" OID="IG_ADVS_GSKADaMMDES1.IT_TRTPN_GSKADaMADVSMDE1"
                     mdr:DatePublished="2025-09-17" mdr:Status="Approved" mdr:SubmissionDataType="Num">
                <Description>
                    <TranslatedText xml:lang="en">Planned Treatment (N)</TranslatedText>
                </Description>
            </ItemDef>
            <ItemDef DataType="integer" Length="8" Name="TRTAN" OID="IG_ADVS_GSKADaMMDES1.IT_TRTAN_GSKADaMADVSMDE1"
                     mdr:DatePublished="2025-09-17" mdr:Status="Approved" mdr:SubmissionDataType="Num">
                <Description>
                    <TranslatedText xml:lang="en">Actual Treatment (N)</TranslatedText>
                </Description>
            </ItemDef>
            <ItemDef DataType="integer" Length="8" Name="TRT01AN" OID="IG_ADVS_GSKADaMMDES1.IT_TRT01AN_GSKADaMADVSMDE1"
                     mdr:DatePublished="2025-09-17" mdr:Status="Approved" mdr:SubmissionDataType="Num">
                <Description>
                    <TranslatedText xml:lang="en">Actual Treatment for Period 01 (N)</TranslatedText>
                </Description>
            </ItemDef>
            <ItemDef DataType="integer" Length="8" Name="TRT01PN" OID="IG_ADVS_GSKADaMMDES1.IT_TRT01PN_GSKADaMADVSMDE1"
                     mdr:DatePublished="2025-09-17" mdr:Status="Approved" mdr:SubmissionDataType="Num">
                <Description>
                    <TranslatedText xml:lang="en">Planned Treatment for Period 01 (N)</TranslatedText>
                </Description>
            </ItemDef>
            <ItemDef DataType="integer" Length="8" Name="TRTSEQPN"
                     OID="IG_ADVS_GSKADaMMDES1.IT_TRTSEQPN_GSKADaMADVSMDE1" mdr:DatePublished="2025-09-17"
                     mdr:Status="Approved" mdr:SubmissionDataType="Num">
                <Description>
                    <TranslatedText xml:lang="en">Planned Sequence of Treatments (N)</TranslatedText>
                </Description>
            </ItemDef>
            <ItemDef DataType="integer" Length="8" Name="TRTSEQAN"
                     OID="IG_ADVS_GSKADaMMDES1.IT_TRTSEQAN_GSKADaMADVSMDE1" mdr:DatePublished="2025-09-17"
                     mdr:Status="Approved" mdr:SubmissionDataType="Num">
                <Description>
                    <TranslatedText xml:lang="en">Actual Sequence of Treatments (N)</TranslatedText>
                </Description>
            </ItemDef>
            <ItemDef DataType="integer" Length="8" Name="APERIOD" OID="IG_ADVS_GSKADaMMDES1.IT_APERIOD_GSKADaMADVSMDE1"
                     mdr:Core="Permissible" mdr:DatePublished="2025-09-17" mdr:Status="Approved"
                     mdr:SubmissionDataType="Num">
                <Description>
                    <TranslatedText xml:lang="en">Period</TranslatedText>
                </Description>
            </ItemDef>
            <ItemDef DataType="integer" Length="8" Name="APHASEN" OID="IG_ADVS_GSKADaMMDES1.IT_APHASEN_GSKADaMADVSMDE1"
                     mdr:Core="Permissible" mdr:DatePublished="2025-09-17" mdr:Status="Approved"
                     mdr:SubmissionDataType="Num">
                <Description>
                    <TranslatedText xml:lang="en">Phase (N)</TranslatedText>
                </Description>
            </ItemDef>
            <ItemDef DataType="integer" Length="8" Name="AVISITN" OID="IG_ADVS_GSKADaMMDES1.IT_AVISITN_GSKADaMADVSMDE1"
                     mdr:Core="Permissible" mdr:DatePublished="2025-09-17" mdr:Status="Approved"
                     mdr:SubmissionDataType="Num">
                <Description>
                    <TranslatedText xml:lang="en">Analysis Visit (N)</TranslatedText>
                </Description>
            </ItemDef>
            <ItemDef DataType="integer" Length="8" Name="ATPTN" OID="IG_ADVS_GSKADaMMDES1.IT_ATPTN_GSKADaMADVSMDE1"
                     mdr:Core="Permissible" mdr:DatePublished="2025-09-17" mdr:Status="Approved"
                     mdr:SubmissionDataType="Num">
                <Description>
                    <TranslatedText xml:lang="en">Analysis Timepoint (N)</TranslatedText>
                </Description>
            </ItemDef>
            <ItemDef DataType="integer" Length="8" Name="APERADY" OID="IG_ADVS_GSKADaMMDES1.IT_APERADY_GSKADaMADVSMDE1"
                     mdr:Core="Permissible" mdr:DatePublished="2025-09-17" mdr:Status="Approved"
                     mdr:SubmissionDataType="Num">
                <Description>
                    <TranslatedText xml:lang="en">Analysis Relative Day in Period</TranslatedText>
                </Description>
            </ItemDef>
            <ItemDef DataType="integer" Length="8" Name="ADT" OID="IG_ADVS_GSKADaMMDES1.IT_ADT_GSKADaMADVSMDE1"
                     mdr:Core="Permissible" mdr:DatePublished="2025-09-17" mdr:Status="Approved"
                     mdr:SubmissionDataType="Num">
                <Description>
                    <TranslatedText xml:lang="en">Analysis Date</TranslatedText>
                </Description>
            </ItemDef>
            <ItemDef DataType="integer" Length="8" Name="ATM" OID="IG_ADVS_GSKADaMMDES1.IT_ATM_GSKADaMADVSMDE1"
                     mdr:Core="Permissible" mdr:DatePublished="2025-09-17" mdr:Status="Approved"
                     mdr:SubmissionDataType="Num">
                <Description>
                    <TranslatedText xml:lang="en">Analysis Time</TranslatedText>
                </Description>
            </ItemDef>
            <ItemDef DataType="integer" Length="8" Name="ADTM" OID="IG_ADVS_GSKADaMMDES1.IT_ADTM_GSKADaMADVSMDE1"
                     mdr:Core="Permissible" mdr:DatePublished="2025-09-17" mdr:Status="Approved"
                     mdr:SubmissionDataType="Num">
                <Description>
                    <TranslatedText xml:lang="en">Analysis Datetime</TranslatedText>
                </Description>
            </ItemDef>
            <ItemDef DataType="integer" Length="8" Name="ADY" OID="IG_ADVS_GSKADaMMDES1.IT_ADY_GSKADaMADVSMDE1"
                     mdr:Core="Permissible" mdr:DatePublished="2025-09-17" mdr:Status="Approved"
                     mdr:SubmissionDataType="Num">
                <Description>
                    <TranslatedText xml:lang="en">Analysis Relative Day</TranslatedText>
                </Description>
            </ItemDef>
            <ItemDef DataType="integer" Length="8" Name="ASPER" OID="IG_ADVS_GSKADaMMDES1.IT_ASPER_GSKADaMADVSMDE1"
                     mdr:Core="Permissible" mdr:DatePublished="2025-09-17" mdr:Status="Approved"
                     mdr:SubmissionDataType="Num">
                <Description>
                    <TranslatedText xml:lang="en">Subperiod within Period</TranslatedText>
                </Description>
            </ItemDef>
            <ItemDef DataType="integer" Length="8" Name="ANRLO" OID="IG_ADVS_GSKADaMMDES1.IT_ANRLO_GSKADaMADVSMDE1"
                     mdr:Core="Permissible" mdr:DatePublished="2025-09-17" mdr:Status="Approved"
                     mdr:SubmissionDataType="Num">
                <Description>
                    <TranslatedText xml:lang="en">Analysis Normal Range Lower Limit</TranslatedText>
                </Description>
            </ItemDef>
            <ItemDef DataType="integer" Length="8" Name="ANRHI" OID="IG_ADVS_GSKADaMMDES1.IT_ANRHI_GSKADaMADVSMDE1"
                     mdr:Core="Permissible" mdr:DatePublished="2025-09-17" mdr:Status="Approved"
                     mdr:SubmissionDataType="Num">
                <Description>
                    <TranslatedText xml:lang="en">Analysis Normal Range Upper Limit</TranslatedText>
                </Description>
            </ItemDef>
            <ItemDef DataType="integer" Length="8" Name="ABLFN" OID="IG_ADVS_GSKADaMMDES1.IT_ABLFN_GSKADaMADVSMDE1"
                     mdr:Core="Permissible" mdr:DatePublished="2025-09-17" mdr:Status="Approved"
                     mdr:SubmissionDataType="Num">
                <Description>
                    <TranslatedText xml:lang="en">Baseline Record Flag (N)</TranslatedText>
                </Description>
            </ItemDef>
            <ItemDef DataType="integer" Length="8" Name="APBLFN" OID="IG_ADVS_GSKADaMMDES1.IT_APBLFN_GSKADaMADVSMDE1"
                     mdr:DatePublished="2025-09-17" mdr:Status="Approved" mdr:SubmissionDataType="Num">
                <Description>
                    <TranslatedText xml:lang="en">Analysis Post-Baseline Flag (N)</TranslatedText>
                </Description>
            </ItemDef>
            <ItemDef DataType="integer" Length="8" Name="BASE" OID="IG_ADVS_GSKADaMMDES1.IT_BASE_GSKADaMADVSMDE1"
                     mdr:Core="Required" mdr:DatePublished="2025-09-17" mdr:Status="Approved"
                     mdr:SubmissionDataType="Num">
                <Description>
                    <TranslatedText xml:lang="en">Baseline Value</TranslatedText>
                </Description>
            </ItemDef>
            <ItemDef DataType="integer" Length="8" Name="CHG" OID="IG_ADVS_GSKADaMMDES1.IT_CHG_GSKADaMADVSMDE1"
                     mdr:DatePublished="2025-09-17" mdr:Status="Approved" mdr:SubmissionDataType="Num">
                <Description>
                    <TranslatedText xml:lang="en">Change from Baseline</TranslatedText>
                </Description>
            </ItemDef>
            <ItemDef DataType="integer" Length="8" Name="A1LO" OID="IG_ADVS_GSKADaMMDES1.IT_A1LO_GSKADaMADVSMDE1"
                     mdr:DatePublished="2025-09-17" mdr:Status="Approved" mdr:SubmissionDataType="Num">
                <Description>
                    <TranslatedText xml:lang="en">Analysis Range 1 Lower Limit</TranslatedText>
                </Description>
            </ItemDef>
            <ItemDef DataType="integer" Length="8" Name="A1HI" OID="IG_ADVS_GSKADaMMDES1.IT_A1HI_GSKADaMADVSMDE1"
                     mdr:DatePublished="2025-09-17" mdr:Status="Approved" mdr:SubmissionDataType="Num">
                <Description>
                    <TranslatedText xml:lang="en">Analysis Range 1 Upper Limit</TranslatedText>
                </Description>
            </ItemDef>
            <ItemDef DataType="integer" Length="8" Name="SRCSEQ" OID="IG_ADVS_GSKADaMMDES1.IT_SRCSEQ_GSKADaMADVSMDE1"
                     mdr:DatePublished="2025-09-17" mdr:Status="Approved" mdr:SubmissionDataType="Num">
                <Description>
                    <TranslatedText xml:lang="en">Source Sequence Number</TranslatedText>
                </Description>
            </ItemDef>
            <ItemDef DataType="integer" Length="8" Name="VISITNUM"
                     OID="IG_ADVS_GSKADaMMDES1.IT_VISITNUM_GSKADaMADVSMDE1" mdr:DatePublished="2025-09-17"
                     mdr:Status="Approved" mdr:SubmissionDataType="Num">
                <Description>
                    <TranslatedText xml:lang="en">Visit Number</TranslatedText>
                </Description>
            </ItemDef>
            <ItemDef DataType="integer" Length="8" Name="ASEQ" OID="IG_ADVS_GSKADaMMDES1.IT_ASEQ_GSKADaMADVSMDE1"
                     mdr:Core="Permissible" mdr:DatePublished="2025-09-17" mdr:Status="Approved"
                     mdr:SubmissionDataType="Num">
                <Description>
                    <TranslatedText xml:lang="en">Analysis Sequence Number</TranslatedText>
                </Description>
            </ItemDef>
            <ItemDef DataType="text" Length="1" Name="ENRLFL" OID="IG_ADVS_GSKADaMMDES1.IT_ENRLFL_GSKADaMADVSMDE1"
                     mdr:DatePublished="2025-09-17" mdr:Status="Approved" mdr:SubmissionDataType="Char">
                <Description>
                    <TranslatedText xml:lang="en">Enrolled Population Flag</TranslatedText>
                </Description>
                <CodeListRef CodeListOID="CL_NY_GSKC66742VD1"/>
            </ItemDef>
            <ItemDef DataType="text" Length="1" Name="FASFL" OID="IG_ADVS_GSKADaMMDES1.IT_FASFL_GSKADaMADVSMDE1"
                     mdr:DatePublished="2025-09-17" mdr:Status="Approved" mdr:SubmissionDataType="Char">
                <Description>
                    <TranslatedText xml:lang="en">Full Analysis Set Population Flag</TranslatedText>
                </Description>
                <CodeListRef CodeListOID="CL_NY_GSKC66742VD1"/>
            </ItemDef>
            <ItemDef DataType="text" Length="1" Name="ITTFL" OID="IG_ADVS_GSKADaMMDES1.IT_ITTFL_GSKADaMADVSMDE1"
                     mdr:DatePublished="2025-09-17" mdr:Status="Approved" mdr:SubmissionDataType="Char">
                <Description>
                    <TranslatedText xml:lang="en">Intent-To-Treat Population Flag</TranslatedText>
                </Description>
                <CodeListRef CodeListOID="CL_NY_GSKC66742VD1"/>
            </ItemDef>
            <ItemDef DataType="text" Length="1" Name="SAFFL" OID="IG_ADVS_GSKADaMMDES1.IT_SAFFL_GSKADaMADVSMDE1"
                     mdr:DatePublished="2025-09-17" mdr:Status="Approved" mdr:SubmissionDataType="Char">
                <Description>
                    <TranslatedText xml:lang="en">Safety Population Flag</TranslatedText>
                </Description>
                <CodeListRef CodeListOID="CL_NY_GSKC66742VD1"/>
            </ItemDef>
            <ItemDef DataType="text" Length="1" Name="PPROTFL" OID="IG_ADVS_GSKADaMMDES1.IT_PPROTFL_GSKADaMADVSMDE1"
                     mdr:DatePublished="2025-09-17" mdr:Status="Approved" mdr:SubmissionDataType="Char">
                <Description>
                    <TranslatedText xml:lang="en">Per-Protocol Population Flag</TranslatedText>
                </Description>
                <CodeListRef CodeListOID="CL_NY_GSKC66742VD1"/>
            </ItemDef>
            <ItemDef DataType="text" Length="1" Name="SEX" OID="IG_ADVS_GSKADaMMDES1.IT_SEX_GSKADaMADVSMDE1"
                     mdr:DatePublished="2025-09-17" mdr:Status="Approved" mdr:SubmissionDataType="Char">
                <Description>
                    <TranslatedText xml:lang="en">Sex</TranslatedText>
                </Description>
                <CodeListRef CodeListOID="CL_SEX_GSKC66731VD1"/>
            </ItemDef>
            <ItemDef DataType="text" Length="8" Name="SHIFT2N" OID="IG_ADVS_GSKADaMMDES1.IT_SHIFT2N_GSKADaMADVSMDE1"
                     mdr:DatePublished="2025-09-17" mdr:Status="Approved" mdr:SubmissionDataType="Char">
                <Description>
                    <TranslatedText xml:lang="en">Shift 2 (N)</TranslatedText>
                </Description>
                <CodeListRef CodeListOID="CL_ADVS_TOXSHIFT1N_S4040012VD1"/>
            </ItemDef>
            <ItemDef DataType="text" Length="8" Name="SHIFT1N" OID="IG_ADVS_GSKADaMMDES1.IT_SHIFT1N_GSKADaMADVSMDE1"
                     mdr:DatePublished="2025-09-17" mdr:Status="Approved" mdr:SubmissionDataType="Char">
                <Description>
                    <TranslatedText xml:lang="en">Shift 1 (N)</TranslatedText>
                </Description>
                <CodeListRef CodeListOID="CL_ADVS_SHIFT1N_S4040010VD1"/>
            </ItemDef>
            <ItemDef DataType="text" Length="8" Name="SHIFT3N" OID="IG_ADVS_GSKADaMMDES1.IT_SHIFT3N_GSKADaMADVSMDE1"
                     mdr:DatePublished="2025-09-17" mdr:Status="Approved" mdr:SubmissionDataType="Char">
                <Description>
                    <TranslatedText xml:lang="en">Shift 3 (N)</TranslatedText>
                </Description>
                <CodeListRef CodeListOID="CL_TOXSHIFT2N_S4040014VD1"/>
            </ItemDef>
            <ItemDef DataType="text" Length="100" Name="SHIFT4" OID="IG_ADVS_GSKADaMMDES1.IT_SHIFT4_GSKADaMADVSMDE1"
                     mdr:DatePublished="2025-09-17" mdr:Status="Approved" mdr:SubmissionDataType="Char">
                <Description>
                    <TranslatedText xml:lang="en">Shift 4</TranslatedText>
                </Description>
                <CodeListRef CodeListOID="CL_TOXSHIFT3C_S4040015VD1"/>
            </ItemDef>
            <ItemDef DataType="text" Length="100" Name="ARACE" OID="IG_ADVS_GSKADaMMDES1.IT_ARACE_GSKADaMADVSMDE1"
                     mdr:DatePublished="2025-09-17" mdr:Status="Approved" mdr:SubmissionDataType="Char">
                <Description>
                    <TranslatedText xml:lang="en">Analysis Race</TranslatedText>
                </Description>
                <CodeListRef CodeListOID="CL_ARACE_S404005VD1"/>
            </ItemDef>
            <ItemDef DataType="text" Length="100" Name="SHIFT3" OID="IG_ADVS_GSKADaMMDES1.IT_SHIFT3_GSKADaMADVSMDE1"
                     mdr:DatePublished="2025-09-17" mdr:Status="Approved" mdr:SubmissionDataType="Char">
                <Description>
                    <TranslatedText xml:lang="en">Shift 3</TranslatedText>
                </Description>
                <CodeListRef CodeListOID="CL_TOXSHIFT2C_S4040013VD1"/>
            </ItemDef>
            <ItemDef DataType="text" Length="100" Name="ACOUNTRY" OID="IG_ADVS_GSKADaMMDES1.IT_ACOUNTRY_GSKADaMADVSMDE1"
                     mdr:Core="Permissible" mdr:DatePublished="2025-09-17" mdr:Status="Approved"
                     mdr:SubmissionDataType="Char">
                <Description>
                    <TranslatedText xml:lang="en">Analysis Country</TranslatedText>
                </Description>
                <CodeListRef CodeListOID="CL_ACOUNTRY_S404008VD1"/>
            </ItemDef>
            <ItemDef DataType="text" Length="100" Name="SHIFT1" OID="IG_ADVS_GSKADaMMDES1.IT_SHIFT1_GSKADaMADVSMDE1"
                     mdr:DatePublished="2025-09-17" mdr:Status="Approved" mdr:SubmissionDataType="Char">
                <Description>
                    <TranslatedText xml:lang="en">Shift 1</TranslatedText>
                </Description>
                <CodeListRef CodeListOID="CL_ADVS_SHIFT1C_S404009VD1"/>
            </ItemDef>
            <ItemDef DataType="text" Length="8" Name="SHIFT4N" OID="IG_ADVS_GSKADaMMDES1.IT_SHIFT4N_GSKADaMADVSMDE1"
                     mdr:DatePublished="2025-09-17" mdr:Status="Approved" mdr:SubmissionDataType="Char">
                <Description>
                    <TranslatedText xml:lang="en">Shift 4 (N)</TranslatedText>
                </Description>
                <CodeListRef CodeListOID="CL_TOXSHIFT3N_S4040016VD1"/>
            </ItemDef>
            <ItemDef DataType="text" Length="20" Name="DTYPE" OID="IG_ADVS_GSKADaMMDES1.IT_DTYPE_GSKADaMADVSMDE1"
                     mdr:DatePublished="2025-09-17" mdr:Status="Approved" mdr:SubmissionDataType="Char">
                <Description>
                    <TranslatedText xml:lang="en">Derivation Type</TranslatedText>
                </Description>
                <CodeListRef CodeListOID="CL_DTYPE_S4040032VD1"/>
            </ItemDef>
            <ItemDef DataType="text" Length="60" Name="CHGCAT1" OID="IG_ADVS_GSKADaMMDES1.IT_CHGCAT1_GSKADaMADVSMDE1"
                     mdr:DatePublished="2025-09-17" mdr:Status="Approved" mdr:SubmissionDataType="Char">
                <Description>
                    <TranslatedText xml:lang="en">Change from Baseline Category 1</TranslatedText>
                </Description>
                <CodeListRef CodeListOID="CL_CHGCAT1C_S4040033VD1"/>
            </ItemDef>
            <ItemDef DataType="text" Length="200" Name="PARAM" OID="IG_ADVS_GSKADaMMDES1.IT_PARAM_GSKADaMADVSMDE1"
