OID,Order,Dataset,Variable,Label,Data Type,Length,Significant Digits,Format,KeySequence,Mandatory,CodeList,Valuelist,Origin Type,Origin Source,Pages,Method,Predecessor,Role,Comment,IsNonStandard,HasNoData,Core,DatePublished,Status,SubmissionDataType
IG_G_OCCDS_GSKADaMMDES1.IT_STUDYID_GSKADaMG_OCCDSMDE1,10,G_OCCDS,STUDYID,Study Identifier,text,9,,,2,Yes,,,,,,,,,,,,Required,2025-09-17,Approved,Char
IG_G_OCCDS_GSKADaMMDES1.IT_USUBJID_GSKADaMG_OCCDSMDE1,20,G_OCCDS,USUBJID,Unique Subject Identifier,text,30,,,1,Yes,,,,,,,,,,,,Required,2025-09-17,Approved,Char
IG_G_OCCDS_GSKADaMMDES1.IT_SUBJID_GSKADaMG_OCCDSMDE1,25,G_OCCDS,SUBJID,Subject Identifier for the Study,text,20,,,,No,,,,,,,,,,,,Permissible,2025-09-17,Approved,Char
IG_G_OCCDS_GSKADaMMDES1.IT_SITEID_GSKADaMG_OCCDSMDE1,30,G_OCCDS,SITEID,Study Site Identifier,text,10,,,,No,,,,,,,,,,,,Permissible,2025-09-17,Approved,Char
IG_G_OCCDS_GSKADaMMDES1.IT_TRTP_GSKADaMG_OCCDSMDE1,120,G_OCCDS,TRTP,Planned Treatment,text,100,,,,No,,,,,,MT_TRTP_GSKADaMG_OCCDSMDE1,,,,,,,2025-09-17,Approved,Char
IG_G_OCCDS_GSKADaMMDES1.IT_TRTA_GSKADaMG_OCCDSMDE1,140,G_OCCDS,TRTA,Actual Treatment,text,100,,,,No,,,,,,MT_TRTA_GSKADaMG_OCCDSMDE1,,,,,,,2025-09-17,Approved,Char
IG_G_OCCDS_GSKADaMMDES1.IT_TRTSEQP_GSKADaMG_OCCDSMDE1,160,G_OCCDS,TRTSEQP,Planned Sequence of Treatments,text,200,,,,No,,,,,,,,,,,,Permissible,2025-09-17,Approved,Char
IG_G_OCCDS_GSKADaMMDES1.IT_TRTSEQA_GSKADaMG_OCCDSMDE1,180,G_OCCDS,TRTSEQA,Actual Sequence of Treatments,text,200,,,,No,,,,,,,,,,,,Permissible,2025-09-17,Approved,Char
IG_G_OCCDS_GSKADaMMDES1.IT_TPERIODC_GSKADaMG_OCCDSMDE1,230,G_OCCDS,TPERIODC,Treatment Period (C),text,100,,,,No,,,,,,,,,,,,Permissible,2025-09-17,Approved,Char
IG_G_OCCDS_GSKADaMMDES1.IT_TRT01A_GSKADaMG_OCCDSMDE1,160,G_OCCDS,TRT01A,Actual Treatment for Period 01,text,100,,,,Yes,,,,,,,,,,,,Required,2025-09-17,Approved,Char
IG_G_OCCDS_GSKADaMMDES1.IT_TRT01P_GSKADaMG_OCCDSMDE1,180,G_OCCDS,TRT01P,Planned Treatment for Period 01,text,100,,,,Yes,,,,,,,,,,,,Required,2025-09-17,Approved,Char
IG_G_OCCDS_GSKADaMMDES1.IT_APERIODC_GSKADaMG_OCCDSMDE1,210,G_OCCDS,APERIODC,Period (C),text,100,,,,No,,,,,,,,,,,,,2025-09-17,Approved,Char
IG_G_OCCDS_GSKADaMMDES1.IT_APHASE_GSKADaMG_OCCDSMDE1,240,G_OCCDS,APHASE,Phase,text,100,,,,No,,,,,,,,,,,,Permissible,2025-09-17,Approved,Char
IG_G_OCCDS_GSKADaMMDES1.IT_xxTERM_GSKADaMG_OCCDSMDE1,410,G_OCCDS,xxTERM,Reported Term,text,200,,,3,Yes,,,,,,,,,,,,Required,2025-09-17,Approved,Char
IG_G_OCCDS_GSKADaMMDES1.IT_xxSEQ_GSKADaMG_OCCDSMDE1,420,G_OCCDS,xxSEQ,Sequence Integer,text,100,,,5,Yes,,,,,,,,,,,,Required,2025-09-17,Approved,Char
IG_G_OCCDS_GSKADaMMDES1.IT_xxDECOD_GSKADaMG_OCCDSMDE1,430,G_OCCDS,xxDECOD,Dictonary-Derived Term,text,200,,,,No,,,,,,,,,,,,,2025-09-17,Approved,Char
IG_G_OCCDS_GSKADaMMDES1.IT_ADURU_GSKADaMG_OCCDSMDE1,450,G_OCCDS,ADURU,Analysis Duration Units,text,40,,,,No,,,,,,,,,,,,,2025-09-17,Approved,Char
IG_G_OCCDS_GSKADaMMDES1.IT_WEIGHTBL_GSKADaMG_OCCDSMDE1,35,G_OCCDS,WEIGHTBL,Weight (kg) at Baseline,integer,8,,,,No,,,,,,,,,,,,Permissible,2025-09-17,Approved,Num
IG_G_OCCDS_GSKADaMMDES1.IT_AGE_GSKADaMG_OCCDSMDE1,40,G_OCCDS,AGE,Age,integer,8,,,,No,,,,,,,,,,,,Permissible,2025-09-17,Approved,Num
IG_G_OCCDS_GSKADaMMDES1.IT_TRTPN_GSKADaMG_OCCDSMDE1,130,G_OCCDS,TRTPN,Planned Treatment (N),integer,8,,,,No,,,,,,,,,,,,,2025-09-17,Approved,Num
IG_G_OCCDS_GSKADaMMDES1.IT_TRTAN_GSKADaMG_OCCDSMDE1,150,G_OCCDS,TRTAN,Actual Treatment (N),integer,8,,,,No,,,,,,,,,,,,,2025-09-17,Approved,Num
IG_G_OCCDS_GSKADaMMDES1.IT_TRTSEQPN_GSKADaMG_OCCDSMDE1,170,G_OCCDS,TRTSEQPN,Planned Sequence of Treatments (N),integer,8,,,,No,,,,,,,,,,,,Permissible,2025-09-17,Approved,Num
IG_G_OCCDS_GSKADaMMDES1.IT_TRTSEQAN_GSKADaMG_OCCDSMDE1,190,G_OCCDS,TRTSEQAN,Actual Sequence of Treatments (N),integer,8,,,,No,,,,,,,,,,,,Permissible,2025-09-17,Approved,Num
IG_G_OCCDS_GSKADaMMDES1.IT_TPERIOD_GSKADaMG_OCCDSMDE1,220,G_OCCDS,TPERIOD,Treatment Period,integer,8,,,,No,,,,,,MT_TPERIOD_GSKADaMG_OCCDSMDE1,,,,,,Permissible,2025-09-17,Approved,Num
IG_G_OCCDS_GSKADaMMDES1.IT_TRT01AN_GSKADaMG_OCCDSMDE1,170,G_OCCDS,TRT01AN,Actual Treatment for Period 01 (N),integer,8,,,,Yes,,,,,,,,,,,,Required,2025-09-17,Approved,Num
IG_G_OCCDS_GSKADaMMDES1.IT_TRT01PN_GSKADaMG_OCCDSMDE1,190,G_OCCDS,TRT01PN,Planned Treatment for Period 01 (N),integer,8,,,,Yes,,,,,,,,,,,,Required,2025-09-17,Approved,Num
IG_G_OCCDS_GSKADaMMDES1.IT_APERIOD_GSKADaMG_OCCDSMDE1,200,G_OCCDS,APERIOD,Period,integer,8,,,,No,,,,,,MT_APERIOD_GSKADaMG_OCCDSMDE1,,,,,,,2025-09-17,Approved,Num
IG_G_OCCDS_GSKADaMMDES1.IT_APHASEN_GSKADaMG_OCCDSMDE1,250,G_OCCDS,APHASEN,Phase (N),integer,8,,,,No,,,,,,,,,,,,Permissible,2025-09-17,Approved,Num
IG_G_OCCDS_GSKADaMMDES1.IT_TPERSTDY_GSKADaMG_OCCDSMDE1,270,G_OCCDS,TPERSTDY,Analysis Relative Start Day Trt Period,integer,8,,,,No,,,,,,MT_TPERSTDY_GSKADaMG_OCCDSMDE1,,,,,,Permissible,2025-09-17,Approved,Num
IG_G_OCCDS_GSKADaMMDES1.IT_TPERENDY_GSKADaMG_OCCDSMDE1,280,G_OCCDS,TPERENDY,Analysis Relative End Day in Trt Period,integer,8,,,,No,,,,,,MT_TPERENDY_GSKADaMG_OCCDSMDE1,,,,,,Permissible,2025-09-17,Approved,Num
IG_G_OCCDS_GSKADaMMDES1.IT_ASTDT_GSKADaMG_OCCDSMDE1,300,G_OCCDS,ASTDT,Analysis Start Date,integer,8,,,4,No,,,,,,MT_ASTDT_GSKADaMG_OCCDSMDE1,,,,,,,2025-09-17,Approved,Num
IG_G_OCCDS_GSKADaMMDES1.IT_ASTTM_GSKADaMG_OCCDSMDE1,320,G_OCCDS,ASTTM,Analysis Start Time,integer,8,,,,No,,,,,,MT_ASTTM_GSKADaMG_OCCDSMDE1,,,,,,,2025-09-17,Approved,Num
IG_G_OCCDS_GSKADaMMDES1.IT_ASTDTM_GSKADaMG_OCCDSMDE1,330,G_OCCDS,ASTDTM,Analysis Start Date/Time,integer,8,,,,No,,,,,,MT_ASTDTM_GSKADaMG_OCCDSMDE1,,,,,,,2025-09-17,Approved,Num
IG_G_OCCDS_GSKADaMMDES1.IT_ASTDY_GSKADaMG_OCCDSMDE1,340,G_OCCDS,ASTDY,Analysis Start Relative Day,integer,8,,,,No,,,,,,MT_ASTDY_GSKADaMG_OCCDSMDE1,,,,,,,2025-09-17,Approved,Num
IG_G_OCCDS_GSKADaMMDES1.IT_AENDT_GSKADaMG_OCCDSMDE1,350,G_OCCDS,AENDT,Analysis End Date,integer,8,,,,No,,,,,,MT_AENDT_GSKADaMG_OCCDSMDE1,,,,,,,2025-09-17,Approved,Num
IG_G_OCCDS_GSKADaMMDES1.IT_AENTM_GSKADaMG_OCCDSMDE1,370,G_OCCDS,AENTM,Analysis End Time,integer,8,,,,No,,,,,,MT_AENTM_GSKADaMG_OCCDSMDE1,,,,,,,2025-09-17,Approved,Num
IG_G_OCCDS_GSKADaMMDES1.IT_AENDTM_GSKADaMG_OCCDSMDE1,380,G_OCCDS,AENDTM,Analysis End Date/Time,integer,8,,,,No,,,,,,MT_AENDTM_GSKADaMG_OCCDSMDE1,,,,,,,2025-09-17,Approved,Num
IG_G_OCCDS_GSKADaMMDES1.IT_AENDY_GSKADaMG_OCCDSMDE1,390,G_OCCDS,AENDY,Analysis End Relative Day,integer,8,,,,No,,,,,,MT_AENDY_GSKADaMG_OCCDSMDE1,,,,,,Permissible,2025-09-17,Approved,Num
IG_G_OCCDS_GSKADaMMDES1.IT_ADURN_GSKADaMG_OCCDSMDE1,440,G_OCCDS,ADURN,Analysis Duration (N),integer,8,,,,No,,,,,,,,,,,,Permissible,2025-09-17,Approved,Num
IG_G_OCCDS_GSKADaMMDES1.IT_ENRLFL_GSKADaMG_OCCDSMDE1,75,G_OCCDS,ENRLFL,Enrolled Population Flag,text,1,,,,No,CL_NY_GSKC66742VD1,,,,,,,,,,,,2025-09-17,Approved,Char
IG_G_OCCDS_GSKADaMMDES1.IT_FASFL_GSKADaMG_OCCDSMDE1,80,G_OCCDS,FASFL,Full Analysis Set Population Flag,text,1,,,,No,CL_NY_GSKC66742VD1,,,,,,,,,,,,2025-09-17,Approved,Char
IG_G_OCCDS_GSKADaMMDES1.IT_ITTFL_GSKADaMG_OCCDSMDE1,90,G_OCCDS,ITTFL,Intent-To-Treat Population Flag,text,1,,,,No,CL_NY_GSKC66742VD1,,,,,,,,,,,,2025-09-17,Approved,Char
IG_G_OCCDS_GSKADaMMDES1.IT_SAFFL_GSKADaMG_OCCDSMDE1,100,G_OCCDS,SAFFL,Safety Population Flag,text,1,,,,No,CL_NY_GSKC66742VD1,,,,,,,,,,,,2025-09-17,Approved,Char
IG_G_OCCDS_GSKADaMMDES1.IT_PPROTFL_GSKADaMG_OCCDSMDE1,110,G_OCCDS,PPROTFL,Per-Protocol Population Flag,text,1,,,,No,CL_NY_GSKC66742VD1,,,,,,,,,,,,2025-09-17,Approved,Char
IG_G_OCCDS_GSKADaMMDES1.IT_SEX_GSKADaMG_OCCDSMDE1,50,G_OCCDS,SEX,Sex,text,1,,,,No,CL_SEX_GSKC66731VD1,,,,,,,,,,,,2025-09-17,Approved,Char
IG_G_OCCDS_GSKADaMMDES1.IT_ARACE_GSKADaMG_OCCDSMDE1,60,G_OCCDS,ARACE,Analysis Race,text,100,,,,No,CL_ARACE_S404005VD1,,,,,,,,,,,,2025-09-17,Approved,Char
IG_G_OCCDS_GSKADaMMDES1.IT_ACOUNTRY_GSKADaMG_OCCDSMDE1,70,G_OCCDS,ACOUNTRY,Analysis Country,text,100,,,,No,CL_ACOUNTRY_S404008VD1,,,,,,,,,,,Permissible,2025-09-17,Approved,Char
IG_G_OCCDS_GSKADaMMDES1.IT_ASTDTF_GSKADaMG_OCCDSMDE1,310,G_OCCDS,ASTDTF,Analysis Start Date Imputation Flag,text,1,,,,No,CL_DATEFL_S4040026VD1,,,,,,,,,,,,2025-09-17,Approved,Char
IG_G_OCCDS_GSKADaMMDES1.IT_AENDTF_GSKADaMG_OCCDSMDE1,360,G_OCCDS,AENDTF,Analysis End Date Imputation Flag,text,1,,,,No,CL_DATEFL_S4040026VD1,,,,,,,,,,,,2025-09-17,Approved,Char
IG_G_OCCDS_GSKADaMMDES1.IT_ANL01FL_GSKADaMG_OCCDSMDE1,400,G_OCCDS,ANL01FL,Analysis Flag 01,text,1,,,,No,CL_Y_BLANK_S404004VD1,,,,,,,,,,,Permissible,2025-09-17,Approved,Char
IG_G_OCCDS_GSKADaMMDES1.IT_ARACEN_GSKADaMG_OCCDSMDE1,65,G_OCCDS,ARACEN,Analysis Race (N),text,8,,,,No,CL_ARACEN_S404006VD1,,,,,,,,,,,,2025-09-17,Approved,Char
IG_G_OCCDS_GSKADaMMDES1.IT_SEXN_GSKADaMG_OCCDSMDE1,55,G_OCCDS,SEXN,Sex (N),text,8,,,,No,CL_SEXN_S404007VD1,,,,,,,,,,,,2025-09-17,Approved,Char
IG_G_BDS_GSKADaMMDES1.IT_STUDYID_GSKADaMG_BDSMDE1,10,G_BDS,STUDYID,Study Identifier,text,9,,,2,Yes,,,,,,,,,,,,Required,2025-09-17,Approved,Char
IG_G_BDS_GSKADaMMDES1.IT_USUBJID_GSKADaMG_BDSMDE1,20,G_BDS,USUBJID,Unique Subject Identifier,text,30,,,1,Yes,,,,,,,,,,,,Required,2025-09-17,Approved,Char
IG_G_BDS_GSKADaMMDES1.IT_SUBJID_GSKADaMG_BDSMDE1,25,G_BDS,SUBJID,Subject Identifier for the Study,text,20,,,,Yes,,,,,,,,,,,,Required,2025-09-17,Approved,Char
IG_G_BDS_GSKADaMMDES1.IT_SITEID_GSKADaMG_BDSMDE1,30,G_BDS,SITEID,Study Site Identifier,text,10,,,,Yes,,,,,,,,,,,,Required,2025-09-17,Approved,Char
IG_G_BDS_GSKADaMMDES1.IT_TRTP_GSKADaMG_BDSMDE1,120,G_BDS,TRTP,Planned Treatment,text,100,,,,No,,,,,,MT_TRTP_GSKADaMG_BDSMDE1,,,,,,,2025-09-17,Approved,Char
IG_G_BDS_GSKADaMMDES1.IT_TRTA_GSKADaMG_BDSMDE1,140,G_BDS,TRTA,Actual Treatment,text,100,,,,No,,,,,,MT_TRTA_GSKADaMG_BDSMDE1,,,,,,,2025-09-17,Approved,Char
IG_G_BDS_GSKADaMMDES1.IT_TRT01A_GSKADaMG_BDSMDE1,160,G_BDS,TRT01A,Actual Treatment for Period 01,text,100,,,,No,,,,,,,,,,,,,2025-09-17,Approved,Char
IG_G_BDS_GSKADaMMDES1.IT_TRT01P_GSKADaMG_BDSMDE1,180,G_BDS,TRT01P,Planned Treatment for Period 01,text,100,,,,Yes,,,,,,,,,,,,Required,2025-09-17,Approved,Char
IG_G_BDS_GSKADaMMDES1.IT_TRTSEQP_GSKADaMG_BDSMDE1,200,G_BDS,TRTSEQP,Planned Sequence of Treatments,text,200,,,,No,,,,,,,,,,,,,2025-09-17,Approved,Char
IG_G_BDS_GSKADaMMDES1.IT_TRTSEQA_GSKADaMG_BDSMDE1,220,G_BDS,TRTSEQA,Actual Sequence of Treatments,text,200,,,,No,,,,,,,,,,,,,2025-09-17,Approved,Char
IG_G_BDS_GSKADaMMDES1.IT_APERIODC_GSKADaMG_BDSMDE1,250,G_BDS,APERIODC,Period (C),text,100,,,,No,,,,,,,,,,,,Permissible,2025-09-17,Approved,Char
IG_G_BDS_GSKADaMMDES1.IT_APHASE_GSKADaMG_BDSMDE1,260,G_BDS,APHASE,Phase,text,100,,,,No,,,,,,MT_APHASE_GSKADaMG_BDSMDE1,,,,,,Permissible,2025-09-17,Approved,Char
IG_G_BDS_GSKADaMMDES1.IT_VISIT_GSKADaMG_BDSMDE1,280,G_BDS,VISIT,Visit Name,text,200,,,,No,,,,,,,,,,,,Permissible,2025-09-17,Approved,Char
IG_G_BDS_GSKADaMMDES1.IT_AVISIT_GSKADaMG_BDSMDE1,300,G_BDS,AVISIT,Analysis Visit,text,200,,,4,No,,,,,,,,,,,,,2025-09-17,Approved,Char
IG_G_BDS_GSKADaMMDES1.IT_ATPTREF_GSKADaMG_BDSMDE1,320,G_BDS,ATPTREF,Analysis Timepoint Reference,text,40,,,,No,,,,,,,,,,,,Permissible,2025-09-17,Approved,Char
IG_G_BDS_GSKADaMMDES1.IT_ATPT_GSKADaMG_BDSMDE1,340,G_BDS,ATPT,Analysis Timepoint,text,40,,,,No,,,,,,,,,,,,,2025-09-17,Approved,Char
IG_G_BDS_GSKADaMMDES1.IT_PARCAT1_GSKADaMG_BDSMDE1,480,G_BDS,PARCAT1,Parameter Category 1,text,100,,,,No,,,,,,,,,,,,Permissible,2025-09-17,Approved,Char
IG_G_BDS_GSKADaMMDES1.IT_PARAM_GSKADaMG_BDSMDE1,490,G_BDS,PARAM,Parameter,text,200,,,,Yes,,,,,,,,,,,,Required,2025-09-17,Approved,Char
IG_G_BDS_GSKADaMMDES1.IT_PARAMCD_GSKADaMG_BDSMDE1,500,G_BDS,PARAMCD,Parameter Code,text,8,,,3,Yes,,,,,,,,,,,,Required,2025-09-17,Approved,Char
IG_G_BDS_GSKADaMMDES1.IT_AVALC_GSKADaMG_BDSMDE1,510,G_BDS,AVALC,Analysis Value (C),text,200,,,,No,,,,,,,,,,,,,2025-09-17,Approved,Char
IG_G_BDS_GSKADaMMDES1.IT_BASEC_GSKADaMG_BDSMDE1,600,G_BDS,BASEC,Baseline Value (C),text,200,,,,No,,,,,,,,,,,,Permissible,2025-09-17,Approved,Char
IG_G_BDS_GSKADaMMDES1.IT_AVALCAT1_GSKADaMG_BDSMDE1,700,G_BDS,AVALCAT1,Analysis Value Category 1,text,40,,,,No,,,,,,,,,,,,Permissible,2025-09-17,Approved,Char
IG_G_BDS_GSKADaMMDES1.IT_AVACA1CD_GSKADaMG_BDSMDE1,710,G_BDS,AVACA1CD,Analysis Category 1 Code,text,8,,,,No,,,,,,,,,,,,Permissible,2025-09-17,Approved,Char
IG_G_BDS_GSKADaMMDES1.IT_BASECAT1_GSKADaMG_BDSMDE1,720,G_BDS,BASECAT1,Baseline Category 1,text,50,,,,No,,,,,,,,,,,,Permissible,2025-09-17,Approved,Char
IG_G_BDS_GSKADaMMDES1.IT_BASCT1CD_GSKADaMG_BDSMDE1,730,G_BDS,BASCT1CD,Baseline Category 1 Code,text,8,,,,No,,,,,,,,,,,,Permissible,2025-09-17,Approved,Char
IG_G_BDS_GSKADaMMDES1.IT_CHGCAT1_GSKADaMG_BDSMDE1,740,G_BDS,CHGCAT1,Change from Baseline Category 1,text,50,,,,No,,,,,,,,,,,,Permissible,2025-09-17,Approved,Char
IG_G_BDS_GSKADaMMDES1.IT_CHGCA1CD_GSKADaMG_BDSMDE1,750,G_BDS,CHGCA1CD,Change from Baseline Category 1 Code,text,8,,,,No,,,,,,MT_CHGCA1CD_GSKADaMG_BDSMDE1,,,,,,Permissible,2025-09-17,Approved,Char
IG_G_BDS_GSKADaMMDES1.IT_SRCDOM_GSKADaMG_BDSMDE1,770,G_BDS,SRCDOM,Source Data,text,8,,,,No,,,,,,,,,,,,Permissible,2025-09-17,Approved,Char
IG_G_BDS_GSKADaMMDES1.IT_SRCVAR_GSKADaMG_BDSMDE1,780,G_BDS,SRCVAR,Source Variable,text,8,,,,No,,,,,,,,,,,,Permissible,2025-09-17,Approved,Char
IG_G_BDS_GSKADaMMDES1.IT_ASPERC_GSKADaMG_BDSMDE1,880,G_BDS,ASPERC,Subperiod within Period (C),text,10,,,,No,,,,,,,,,,,,Permissible,2025-09-17,Approved,Char
IG_G_BDS_GSKADaMMDES1.IT_WEIGHTBL_GSKADaMG_BDSMDE1,35,G_BDS,WEIGHTBL,Weight (kg) at Baseline,integer,8,,,,No,,,,,,,,,,,,Permissible,2025-09-17,Approved,Num
IG_G_BDS_GSKADaMMDES1.IT_AVAL_GSKADaMG_BDSMDE1,520,G_BDS,AVAL,Analysis Value,integer,8,,,,No,,,,,,,,,,,,,2025-09-17,Approved,Num
IG_G_BDS_GSKADaMMDES1.IT_AGE_GSKADaMG_BDSMDE1,40,G_BDS,AGE,Age,integer,8,,,,No,,,,,,,,,,,,,2025-09-17,Approved,Num
IG_G_BDS_GSKADaMMDES1.IT_TRTPN_GSKADaMG_BDSMDE1,130,G_BDS,TRTPN,Planned Treatment (N),integer,8,,,,No,,,,,,,,,,,,,2025-09-17,Approved,Num
IG_G_BDS_GSKADaMMDES1.IT_TRTAN_GSKADaMG_BDSMDE1,150,G_BDS,TRTAN,Actual Treatment (N),integer,8,,,,No,,,,,,,,,,,,,2025-09-17,Approved,Num
IG_G_BDS_GSKADaMMDES1.IT_TRT01AN_GSKADaMG_BDSMDE1,170,G_BDS,TRT01AN,Actual Treatment for Period 01 (N),integer,8,,,,No,,,,,,,,,,,,,2025-09-17,Approved,Num
IG_G_BDS_GSKADaMMDES1.IT_TRT01PN_GSKADaMG_BDSMDE1,190,G_BDS,TRT01PN,Planned Treatment for Period 01 (N),integer,8,,,,No,,,,,,,,,,,,,2025-09-17,Approved,Num
IG_G_BDS_GSKADaMMDES1.IT_TRTSEQPN_GSKADaMG_BDSMDE1,210,G_BDS,TRTSEQPN,Planned Sequence of Treatments (N),integer,8,,,,No,,,,,,,,,,,,,2025-09-17,Approved,Num
IG_G_BDS_GSKADaMMDES1.IT_TRTSEQAN_GSKADaMG_BDSMDE1,230,G_BDS,TRTSEQAN,Actual Sequence of Treatments (N),integer,8,,,,No,,,,,,,,,,,,,2025-09-17,Approved,Num
IG_G_BDS_GSKADaMMDES1.IT_APERIOD_GSKADaMG_BDSMDE1,240,G_BDS,APERIOD,Period,integer,8,,,,No,,,,,,MT_APERIOD_GSKADaMG_BDSMDE1,,,,,,Permissible,2025-09-17,Approved,Num
IG_G_BDS_GSKADaMMDES1.IT_APHASEN_GSKADaMG_BDSMDE1,270,G_BDS,APHASEN,Phase (N),integer,8,,,,No,,,,,,,,,,,,Permissible,2025-09-17,Approved,Num
IG_G_BDS_GSKADaMMDES1.IT_VISITNUM_GSKADaMG_BDSMDE1,290,G_BDS,VISITNUM,Visit Number,integer,8,,,,No,,,,,,,,,,,,Permissible,2025-09-17,Approved,Num
IG_G_BDS_GSKADaMMDES1.IT_AVISITN_GSKADaMG_BDSMDE1,310,G_BDS,AVISITN,Analysis Visit (N),integer,8,,,,No,,,,,,,,,,,,Permissible,2025-09-17,Approved,Num
IG_G_BDS_GSKADaMMDES1.IT_ATPTN_GSKADaMG_BDSMDE1,330,G_BDS,ATPTN,Analysis Timepoint (N),integer,8,,,,No,,,,,,,,,,,,Permissible,2025-09-17,Approved,Num
IG_G_BDS_GSKADaMMDES1.IT_APERADY_GSKADaMG_BDSMDE1,350,G_BDS,APERADY,Analysis Relative Day in Period,integer,8,,,,No,,,,,,MT_APERADY_GSKADaMG_BDSMDE1,,,,,,Permissible,2025-09-17,Approved,Num
IG_G_BDS_GSKADaMMDES1.IT_ADT_GSKADaMG_BDSMDE1,360,G_BDS,ADT,Analysis Date,integer,8,,,,No,,,,,,MT_ADT_GSKADaMG_BDSMDE1,,,,,,Permissible,2025-09-17,Approved,Num
IG_G_BDS_GSKADaMMDES1.IT_ATM_GSKADaMG_BDSMDE1,370,G_BDS,ATM,Analysis Time,integer,8,,,,No,,,,,,MT_ATM_GSKADaMG_BDSMDE1,,,,,,Permissible,2025-09-17,Approved,Num
IG_G_BDS_GSKADaMMDES1.IT_ADTM_GSKADaMG_BDSMDE1,380,G_BDS,ADTM,Analysis Datetime,integer,8,,,,No,,,,,,MT_ADTM_GSKADaMG_BDSMDE1,,,,,,Permissible,2025-09-17,Approved,Num
IG_G_BDS_GSKADaMMDES1.IT_ADY_GSKADaMG_BDSMDE1,390,G_BDS,ADY,Analysis Relative Day,integer,8,,,,No,,,,,,MT_ADY_GSKADaMG_BDSMDE1,,,,,,Permissible,2025-09-17,Approved,Num
IG_G_BDS_GSKADaMMDES1.IT_ASTDT_GSKADaMG_BDSMDE1,400,G_BDS,ASTDT,Analysis Start Date,integer,8,,,,No,,,,,,MT_ASTDT_GSKADaMG_BDSMDE1,,,,,,Permissible,2025-09-17,Approved,Num
IG_G_BDS_GSKADaMMDES1.IT_ASTTM_GSKADaMG_BDSMDE1,410,G_BDS,ASTTM,Analysis Start Time,integer,8,,,,No,,,,,,MT_ASTTM_GSKADaMG_BDSMDE1,,,,,,Permissible,2025-09-17,Approved,Num
IG_G_BDS_GSKADaMMDES1.IT_ASTDTM_GSKADaMG_BDSMDE1,420,G_BDS,ASTDTM,Analysis Start Datetime,integer,8,,,,No,,,,,,MT_ASTDTM_GSKADaMG_BDSMDE1,,,,,,Permissible,2025-09-17,Approved,Num
IG_G_BDS_GSKADaMMDES1.IT_ASTDY_GSKADaMG_BDSMDE1,430,G_BDS,ASTDY,Analysis Start Relative Day,integer,8,,,,No,,,,,,MT_ASTDY_GSKADaMG_BDSMDE1,,,,,,Permissible,2025-09-17,Approved,Num
IG_G_BDS_GSKADaMMDES1.IT_AENDT_GSKADaMG_BDSMDE1,440,G_BDS,AENDT,Analysis End Date,integer,8,,,,No,,,,,,MT_AENDT_GSKADaMG_BDSMDE1,,,,,,Permissible,2025-09-17,Approved,Num
IG_G_BDS_GSKADaMMDES1.IT_AENTM_GSKADaMG_BDSMDE1,450,G_BDS,AENTM,Analysis End Time,integer,8,,,,No,,,,,,MT_AENTM_GSKADaMG_BDSMDE1,,,,,,Permissible,2025-09-17,Approved,Num
IG_G_BDS_GSKADaMMDES1.IT_AENDTM_GSKADaMG_BDSMDE1,460,G_BDS,AENDTM,Analysis End Datetime,integer,8,,,,No,,,,,,MT_AENDTM_GSKADaMG_BDSMDE1,,,,,,Permissible,2025-09-17,Approved,Num
IG_G_BDS_GSKADaMMDES1.IT_AENDY_GSKADaMG_BDSMDE1,470,G_BDS,AENDY,Analysis End Relative Day,integer,8,,,,No,,,,,,MT_AENDY_GSKADaMG_BDSMDE1,,,,,,Permissible,2025-09-17,Approved,Num
IG_G_BDS_GSKADaMMDES1.IT_PARAMN_GSKADaMG_BDSMDE1,495,G_BDS,PARAMN,Parameter (N),integer,8,,,,No,,,,,,,,,,,,Permissible,2025-09-17,Approved,Num
IG_G_BDS_GSKADaMMDES1.IT_BASE_GSKADaMG_BDSMDE1,590,G_BDS,BASE,Baseline Value,integer,8,,,,No,,,,,,,,,,,,Permissible,2025-09-17,Approved,Num
IG_G_BDS_GSKADaMMDES1.IT_CHG_GSKADaMG_BDSMDE1,610,G_BDS,CHG,Change from Baseline,integer,8,,,,No,,,,,,MT_CHG_GSKADaMG_BDSMDE1,,,,,,Permissible,2025-09-17,Approved,Num
IG_G_BDS_GSKADaMMDES1.IT_A1LO_GSKADaMG_BDSMDE1,620,G_BDS,A1LO,Analysis Range 1 Lower Limit,integer,8,,,,No,,,,,,,,,,,,Permissible,2025-09-17,Approved,Num
IG_G_BDS_GSKADaMMDES1.IT_A1HI_GSKADaMG_BDSMDE1,630,G_BDS,A1HI,Analysis Range 1 Upper Limit,integer,8,,,,No,,,,,,,,,,,,Permissible,2025-09-17,Approved,Num
IG_G_BDS_GSKADaMMDES1.IT_PCHG_GSKADaMG_BDSMDE1,760,G_BDS,PCHG,Percent Change from Baseline,integer,8,,,,No,,,,,,MT_PCHG_GSKADaMG_BDSMDE1,,,,,,Permissible,2025-09-17,Approved,Num
IG_G_BDS_GSKADaMMDES1.IT_SRCSEQ_GSKADaMG_BDSMDE1,790,G_BDS,SRCSEQ,Source Sequence Number,integer,8,,,,No,,,,,,,,,,,,Permissible,2025-09-17,Approved,Num
IG_G_BDS_GSKADaMMDES1.IT_ASEQ_GSKADaMG_BDSMDE1,800,G_BDS,ASEQ,Analysis Sequence Number,integer,8,,,,No,,,,,,MT_ASEQ_GSKADaMG_BDSMDE1,,,,,,Permissible,2025-09-17,Approved,Num
IG_G_BDS_GSKADaMMDES1.IT_ASPER_GSKADaMG_BDSMDE1,870,G_BDS,ASPER,Subperiod within Period,integer,8,,,,No,,,,,,MT_ASPER_GSKADaMG_BDSMDE1,,,,,,Permissible,2025-09-17,Approved,Num
IG_G_BDS_GSKADaMMDES1.IT_ENRLFL_GSKADaMG_BDSMDE1,75,G_BDS,ENRLFL,Enrolled Population Flag,text,1,,,,No,CL_NY_GSKC66742VD1,,,,,,,,,,,,2025-09-17,Approved,Char
IG_G_BDS_GSKADaMMDES1.IT_FASFL_GSKADaMG_BDSMDE1,80,G_BDS,FASFL,Full Analysis Set Population Flag,text,1,,,,No,CL_NY_GSKC66742VD1,,,,,,,,,,,,2025-09-17,Approved,Char
IG_G_BDS_GSKADaMMDES1.IT_ITTFL_GSKADaMG_BDSMDE1,90,G_BDS,ITTFL,Intent-To-Treat Population Flag,text,1,,,,No,CL_NY_GSKC66742VD1,,,,,,,,,,,,2025-09-17,Approved,Char
IG_G_BDS_GSKADaMMDES1.IT_SAFFL_GSKADaMG_BDSMDE1,100,G_BDS,SAFFL,Safety Population Flag,text,1,,,,No,CL_NY_GSKC66742VD1,,,,,,,,,,,,2025-09-17,Approved,Char
IG_G_BDS_GSKADaMMDES1.IT_PPROTFL_GSKADaMG_BDSMDE1,110,G_BDS,PPROTFL,Per-Protocol Population Flag,text,1,,,,No,CL_NY_GSKC66742VD1,,,,,,,,,,,,2025-09-17,Approved,Char
IG_G_BDS_GSKADaMMDES1.IT_SEX_GSKADaMG_BDSMDE1,50,G_BDS,SEX,Sex,text,1,,,,No,CL_SEX_GSKC66731VD1,,,,,,,,,,,,2025-09-17,Approved,Char
IG_G_BDS_GSKADaMMDES1.IT_ARACE_GSKADaMG_BDSMDE1,60,G_BDS,ARACE,Analysis Race,text,100,,,,No,CL_ARACE_S404005VD1,,,,,,,,,,,,2025-09-17,Approved,Char
IG_G_BDS_GSKADaMMDES1.IT_ACOUNTRY_GSKADaMG_BDSMDE1,70,G_BDS,ACOUNTRY,Analysis Country,text,100,,,,No,CL_ACOUNTRY_S404008VD1,,,,,,,,,,,Permissible,2025-09-17,Approved,Char
IG_G_BDS_GSKADaMMDES1.IT_ADTF_GSKADaMG_BDSMDE1,810,G_BDS,ADTF,Analysis Date Imputation Flag,text,8,,,,No,CL_DATEFL_S4040026VD1,,,,,,,,,,,,2025-09-17,Approved,Char
IG_G_BDS_GSKADaMMDES1.IT_ASTDTF_GSKADaMG_BDSMDE1,830,G_BDS,ASTDTF,Analysis Start Date Imputation Flag,text,8,,,,No,CL_DATEFL_S4040026VD1,,,,,,,,,,,,2025-09-17,Approved,Char
IG_G_BDS_GSKADaMMDES1.IT_AENDTF_GSKADaMG_BDSMDE1,850,G_BDS,AENDTF,Analysis End Date Imputation Flag,text,8,,,,No,CL_DATEFL_S4040026VD1,,,,,,,,,,,,2025-09-17,Approved,Char
IG_G_BDS_GSKADaMMDES1.IT_DTYPE_GSKADaMG_BDSMDE1,530,G_BDS,DTYPE,Derivation Type,text,20,,,,No,CL_DTYPE_S4040032VD1,,,,,,,,,,,,2025-09-17,Approved,Char
IG_G_BDS_GSKADaMMDES1.IT_A1IND_GSKADaMG_BDSMDE1,650,G_BDS,A1IND,Analysis Range 1 Full Text,text,20,,,,No,CL_A1IND_S404001VD1,,,,,,,,,,,Permissible,2025-09-17,Approved,Char
IG_G_BDS_GSKADaMMDES1.IT_ANL01FL_GSKADaMG_BDSMDE1,540,G_BDS,ANL01FL,Analysis Flag 01,text,1,,,,No,CL_Y_BLANK_S404004VD1,,,,,,,,,,,Permissible,2025-09-17,Approved,Char
IG_G_BDS_GSKADaMMDES1.IT_ABLFL_GSKADaMG_BDSMDE1,580,G_BDS,ABLFL,Baseline Record Flag,text,1,,,,No,CL_Y_BLANK_S404004VD1,,,,,,,,,,,,2025-09-17,Approved,Char
IG_G_BDS_GSKADaMMDES1.IT_ARACEN_GSKADaMG_BDSMDE1,65,G_BDS,ARACEN,Analysis Race (N),text,8,,,,No,CL_ARACEN_S404006VD1,,,,,,,,,,,,2025-09-17,Approved,Char
IG_G_BDS_GSKADaMMDES1.IT_SEXN_GSKADaMG_BDSMDE1,55,G_BDS,SEXN,Sex (N),text,8,,,,No,CL_SEXN_S404007VD1,,,,,,,,,,,,2025-09-17,Approved,Char
IG_G_BDS_GSKADaMMDES1.IT_A1INDCD_GSKADaMG_BDSMDE1,640,G_BDS,A1INDCD,Analysis Range 1 Code Indicator,text,2,,,,No,CL_A1INDCD_S404002VD1,,,,,,,,,,,Permissible,2025-09-17,Approved,Char
IG_G_BDS_GSKADaMMDES1.IT_ATMF_GSKADaMG_BDSMDE1,820,G_BDS,ATMF,Analysis Time Imputation Flag,text,8,,,,No,CL_TIMEFL_S4040048VD1,,,,,,,,,,,,2025-09-17,Approved,Char
IG_G_BDS_GSKADaMMDES1.IT_ASTTMF_GSKADaMG_BDSMDE1,840,G_BDS,ASTTMF,Analysis Start Time Imputation Flag,text,8,,,,No,CL_TIMEFL_S4040048VD1,,,,,,,,,,,,2025-09-17,Approved,Char
IG_G_BDS_GSKADaMMDES1.IT_AENTMF_GSKADaMG_BDSMDE1,860,G_BDS,AENTMF,Analysis End Time Imputation Flag,text,8,,,,No,CL_TIMEFL_S4040048VD1,,,,,,,,,,,,2025-09-17,Approved,Char
IG_ADVS_GSKADaMMDES1.IT_STUDYID_GSKADaMADVSMDE1,10,ADVS,STUDYID,Study Identifier,text,9,,,2,Yes,,,,,,,,,,,,Required,2025-09-17,Approved,Char
IG_ADVS_GSKADaMMDES1.IT_USUBJID_GSKADaMADVSMDE1,20,ADVS,USUBJID,Unique Subject Identifier,text,30,,,1,Yes,,,,,,,,,,,,Required,2025-09-17,Approved,Char
IG_ADVS_GSKADaMMDES1.IT_SUBJID_GSKADaMADVSMDE1,30,ADVS,SUBJID,Subject Identifier for the Study,text,20,,,,Yes,,,,,,,,,,,,Required,2025-09-17,Approved,Char
IG_ADVS_GSKADaMMDES1.IT_SITEID_GSKADaMADVSMDE1,40,ADVS,SITEID,Study Site Identifier,text,10,,,,Yes,,,,,,,,,,,,Required,2025-09-17,Approved,Char
IG_ADVS_GSKADaMMDES1.IT_TRTP_GSKADaMADVSMDE1,170,ADVS,TRTP,Planned Treatment,text,100,,,,No,,,,,,MT_TRTP_GSKADaMADVSMDE1,,,,,,,2025-09-17,Approved,Char
IG_ADVS_GSKADaMMDES1.IT_TRTA_GSKADaMADVSMDE1,190,ADVS,TRTA,Actual Treatment,text,100,,,,No,,,,,,MT_TRTA_GSKADaMADVSMDE1,,,,,,,2025-09-17,Approved,Char
IG_ADVS_GSKADaMMDES1.IT_TRT01A_GSKADaMADVSMDE1,210,ADVS,TRT01A,Actual Treatment for Period 01,text,100,,,,No,,,,,,,,,,,,,2025-09-17,Approved,Char
IG_ADVS_GSKADaMMDES1.IT_TRT01P_GSKADaMADVSMDE1,230,ADVS,TRT01P,Planned Treatment for Period 01,text,100,,,,Yes,,,,,,,,,,,,Required,2025-09-17,Approved,Char
IG_ADVS_GSKADaMMDES1.IT_TRTSEQP_GSKADaMADVSMDE1,250,ADVS,TRTSEQP,Planned Sequence of Treatments,text,200,,,,No,,,,,,,,,,,,,2025-09-17,Approved,Char
IG_ADVS_GSKADaMMDES1.IT_TRTSEQA_GSKADaMADVSMDE1,270,ADVS,TRTSEQA,Actual Sequence of Treatments,text,200,,,,No,,,,,,,,,,,,,2025-09-17,Approved,Char
IG_ADVS_GSKADaMMDES1.IT_APERIODC_GSKADaMADVSMDE1,300,ADVS,APERIODC,Period (C),text,100,,,,No,,,,,,,,,,,,Permissible,2025-09-17,Approved,Char
IG_ADVS_GSKADaMMDES1.IT_APHASE_GSKADaMADVSMDE1,310,ADVS,APHASE,Phase,text,100,,,,No,,,,,,MT_APHASE_GSKADaMADVSMDE1,,,,,,Permissible,2025-09-17,Approved,Char
IG_ADVS_GSKADaMMDES1.IT_AVISIT_GSKADaMADVSMDE1,330,ADVS,AVISIT,Analysis Visit,text,200,,,4,No,,,,,,,,,,,,,2025-09-17,Approved,Char
IG_ADVS_GSKADaMMDES1.IT_ATPTREF_GSKADaMADVSMDE1,350,ADVS,ATPTREF,Analysis Timepoint Reference,text,40,,,,No,,,,,,,,,,,,Permissible,2025-09-17,Approved,Char
IG_ADVS_GSKADaMMDES1.IT_ATPT_GSKADaMADVSMDE1,360,ADVS,ATPT,Analysis Timepoint,text,40,,,5,No,,,,,,,,,,,,,2025-09-17,Approved,Char
IG_ADVS_GSKADaMMDES1.IT_ASPERC_GSKADaMADVSMDE1,450,ADVS,ASPERC,Subperiod within Period (C),text,100,,,,No,,,,,,,,,,,,Permissible,2025-09-17,Approved,Char
IG_ADVS_GSKADaMMDES1.IT_VSLOC_GSKADaMADVSMDE1,460,ADVS,VSLOC,Location of Vital Signs Measurement,text,100,,,,No,,,,,,,,,,,,,2025-09-17,Approved,Char
IG_ADVS_GSKADaMMDES1.IT_PARCAT1_GSKADaMADVSMDE1,470,ADVS,PARCAT1,Parameter Category 1,text,100,,,,No,,,,,,,,,,,,,2025-09-17,Approved,Char
IG_ADVS_GSKADaMMDES1.IT_PARAMLBL_GSKADaMADVSMDE1,510,ADVS,PARAMLBL,Parameter Label,text,200,,,,No,,,,,,,,,,,,,2025-09-17,Approved,Char
IG_ADVS_GSKADaMMDES1.IT_AVALC_GSKADaMADVSMDE1,520,ADVS,AVALC,Analysis Value (C),text,200,,,,No,,,,,,,,,,,,,2025-09-17,Approved,Char
IG_ADVS_GSKADaMMDES1.IT_ANRINDCD_GSKADaMADVSMDE1,560,ADVS,ANRINDCD,Analysis Reference Range Code Indicator,text,1,,,,No,,,,,,MT_ANRINDCD_GSKADaMADVSMDE1,,,,,,Permissible,2025-09-17,Approved,Char
IG_ADVS_GSKADaMMDES1.IT_ANRIND_GSKADaMADVSMDE1,570,ADVS,ANRIND,Analysis Reference Range Indicator,text,40,,,,No,,,,,,,,,,,,Permissible,2025-09-17,Approved,Char
IG_ADVS_GSKADaMMDES1.IT_BASEC_GSKADaMADVSMDE1,630,ADVS,BASEC,Baseline Value (C),text,200,,,,No,,,,,,,,,,,,,2025-09-17,Approved,Char
IG_ADVS_GSKADaMMDES1.IT_B2IND_GSKADaMADVSMDE1,720,ADVS,B2IND,Baseline Analysis Range 2 Indicator,text,60,,,,No,,,,,,MT_B2IND_GSKADaMADVSMDE1,,,,,,,2025-09-17,Approved,Char
IG_ADVS_GSKADaMMDES1.IT_SRCDOM_GSKADaMADVSMDE1,890,ADVS,SRCDOM,Source Data,text,8,,,,No,,,,,,,,,,,,,2025-09-17,Approved,Char
IG_ADVS_GSKADaMMDES1.IT_SRCVAR_GSKADaMADVSMDE1,900,ADVS,SRCVAR,Source Variable,text,8,,,,No,,,,,,,,,,,,,2025-09-17,Approved,Char
IG_ADVS_GSKADaMMDES1.IT_VISIT_GSKADaMADVSMDE1,920,ADVS,VISIT,Visit Name,text,100,,,,No,,,,,,,,,,,,,2025-09-17,Approved,Char
IG_ADVS_GSKADaMMDES1.IT_VSDTC_GSKADaMADVSMDE1,420,ADVS,VSDTC,Date/Time of Measurements,datetime,,,,,No,,,,,,,,,,,,Permissible,2025-09-17,Approved,Char
IG_ADVS_GSKADaMMDES1.IT_WEIGHTBL_GSKADaMADVSMDE1,50,ADVS,WEIGHTBL,Weight (kg) at Baseline,integer,8,,,,No,,,,,,,,,,,,Permissible,2025-09-17,Approved,Num
IG_ADVS_GSKADaMMDES1.IT_AVAL_GSKADaMADVSMDE1,530,ADVS,AVAL,Analysis Value,integer,8,,,,Yes,,,,,,,,,,,,Required,2025-09-17,Approved,Num
IG_ADVS_GSKADaMMDES1.IT_AGE_GSKADaMADVSMDE1,60,ADVS,AGE,Age,integer,8,,,,No,,,,,,,,,,,,,2025-09-17,Approved,Num
IG_ADVS_GSKADaMMDES1.IT_TRTPN_GSKADaMADVSMDE1,180,ADVS,TRTPN,Planned Treatment (N),integer,8,,,,No,,,,,,,,,,,,,2025-09-17,Approved,Num
IG_ADVS_GSKADaMMDES1.IT_TRTAN_GSKADaMADVSMDE1,200,ADVS,TRTAN,Actual Treatment (N),integer,8,,,,No,,,,,,,,,,,,,2025-09-17,Approved,Num
IG_ADVS_GSKADaMMDES1.IT_TRT01AN_GSKADaMADVSMDE1,220,ADVS,TRT01AN,Actual Treatment for Period 01 (N),integer,8,,,,No,,,,,,,,,,,,,2025-09-17,Approved,Num
IG_ADVS_GSKADaMMDES1.IT_TRT01PN_GSKADaMADVSMDE1,240,ADVS,TRT01PN,Planned Treatment for Period 01 (N),integer,8,,,,No,,,,,,,,,,,,,2025-09-17,Approved,Num
IG_ADVS_GSKADaMMDES1.IT_TRTSEQPN_GSKADaMADVSMDE1,260,ADVS,TRTSEQPN,Planned Sequence of Treatments (N),integer,8,,,,No,,,,,,,,,,,,,2025-09-17,Approved,Num
IG_ADVS_GSKADaMMDES1.IT_TRTSEQAN_GSKADaMADVSMDE1,280,ADVS,TRTSEQAN,Actual Sequence of Treatments (N),integer,8,,,,No,,,,,,,,,,,,,2025-09-17,Approved,Num
IG_ADVS_GSKADaMMDES1.IT_APERIOD_GSKADaMADVSMDE1,290,ADVS,APERIOD,Period,integer,8,,,,No,,,,,,MT_APERIOD_GSKADaMADVSMDE1,,,,,,Permissible,2025-09-17,Approved,Num
IG_ADVS_GSKADaMMDES1.IT_APHASEN_GSKADaMADVSMDE1,320,ADVS,APHASEN,Phase (N),integer,8,,,,No,,,,,,,,,,,,Permissible,2025-09-17,Approved,Num
IG_ADVS_GSKADaMMDES1.IT_AVISITN_GSKADaMADVSMDE1,340,ADVS,AVISITN,Analysis Visit (N),integer,8,,,,No,,,,,,,,,,,,Permissible,2025-09-17,Approved,Num
IG_ADVS_GSKADaMMDES1.IT_ATPTN_GSKADaMADVSMDE1,370,ADVS,ATPTN,Analysis Timepoint (N),integer,8,,,,No,,,,,,,,,,,,Permissible,2025-09-17,Approved,Num
IG_ADVS_GSKADaMMDES1.IT_APERADY_GSKADaMADVSMDE1,380,ADVS,APERADY,Analysis Relative Day in Period,integer,8,,,,No,,,,,,MT_APERADY_GSKADaMADVSMDE1,,,,,,Permissible,2025-09-17,Approved,Num
IG_ADVS_GSKADaMMDES1.IT_ADT_GSKADaMADVSMDE1,390,ADVS,ADT,Analysis Date,integer,8,,,,No,,,,,,MT_ADT_GSKADaMADVSMDE1,,,,,,Permissible,2025-09-17,Approved,Num
IG_ADVS_GSKADaMMDES1.IT_ATM_GSKADaMADVSMDE1,400,ADVS,ATM,Analysis Time,integer,8,,,,No,,,,,,MT_ATM_GSKADaMADVSMDE1,,,,,,Permissible,2025-09-17,Approved,Num
IG_ADVS_GSKADaMMDES1.IT_ADTM_GSKADaMADVSMDE1,410,ADVS,ADTM,Analysis Datetime,integer,8,,,,No,,,,,,MT_ADTM_GSKADaMADVSMDE1,,,,,,Permissible,2025-09-17,Approved,Num
IG_ADVS_GSKADaMMDES1.IT_ADY_GSKADaMADVSMDE1,430,ADVS,ADY,Analysis Relative Day,integer,8,,,,No,,,,,,MT_ADY_GSKADaMADVSMDE1,,,,,,Permissible,2025-09-17,Approved,Num
IG_ADVS_GSKADaMMDES1.IT_ASPER_GSKADaMADVSMDE1,440,ADVS,ASPER,Subperiod within Period,integer,8,,,,No,,,,,,MT_ASPER_GSKADaMADVSMDE1,,,,,,Permissible,2025-09-17,Approved,Num
IG_ADVS_GSKADaMMDES1.IT_ANRLO_GSKADaMADVSMDE1,540,ADVS,ANRLO,Analysis Normal Range Lower Limit,integer,8,,,,No,,,,,,,,,,,,Permissible,2025-09-17,Approved,Num
IG_ADVS_GSKADaMMDES1.IT_ANRHI_GSKADaMADVSMDE1,550,ADVS,ANRHI,Analysis Normal Range Upper Limit,integer,8,,,,No,,,,,,,,,,,,Permissible,2025-09-17,Approved,Num
IG_ADVS_GSKADaMMDES1.IT_ABLFN_GSKADaMADVSMDE1,590,ADVS,ABLFN,Baseline Record Flag (N),integer,8,,,,No,,,,,,,,,,,,Permissible,2025-09-17,Approved,Num
IG_ADVS_GSKADaMMDES1.IT_APBLFN_GSKADaMADVSMDE1,610,ADVS,APBLFN,Analysis Post-Baseline Flag (N),integer,8,,,,No,,,,,,,,,,,,,2025-09-17,Approved,Num
IG_ADVS_GSKADaMMDES1.IT_BASE_GSKADaMADVSMDE1,620,ADVS,BASE,Baseline Value,integer,8,,,,Yes,,,,,,MT_BASE_GSKADaMADVSMDE1,,,,,,Required,2025-09-17,Approved,Num
IG_ADVS_GSKADaMMDES1.IT_CHG_GSKADaMADVSMDE1,640,ADVS,CHG,Change from Baseline,integer,8,,,,No,,,,,,MT_CHG_GSKADaMADVSMDE1,,,,,,,2025-09-17,Approved,Num
IG_ADVS_GSKADaMMDES1.IT_A1LO_GSKADaMADVSMDE1,650,ADVS,A1LO,Analysis Range 1 Lower Limit,integer,8,,,,No,,,,,,,,,,,,,2025-09-17,Approved,Num
IG_ADVS_GSKADaMMDES1.IT_A1HI_GSKADaMADVSMDE1,660,ADVS,A1HI,Analysis Range 1 Upper Limit,integer,8,,,,No,,,,,,,,,,,,,2025-09-17,Approved,Num
IG_ADVS_GSKADaMMDES1.IT_SRCSEQ_GSKADaMADVSMDE1,910,ADVS,SRCSEQ,Source Sequence Number,integer,8,,,,No,,,,,,,,,,,,,2025-09-17,Approved,Num
IG_ADVS_GSKADaMMDES1.IT_VISITNUM_GSKADaMADVSMDE1,930,ADVS,VISITNUM,Visit Number,integer,8,,,,No,,,,,,,,,,,,,2025-09-17,Approved,Num
IG_ADVS_GSKADaMMDES1.IT_ASEQ_GSKADaMADVSMDE1,970,ADVS,ASEQ,Analysis Sequence Number,integer,8,,,,No,,,,,,MT_ASEQ_GSKADaMADVSMDE1,,,,,,Permissible,2025-09-17,Approved,Num
IG_ADVS_GSKADaMMDES1.IT_ENRLFL_GSKADaMADVSMDE1,120,ADVS,ENRLFL,Enrolled Population Flag,text,1,,,,No,CL_NY_GSKC66742VD1,,,,,,,,,,,,2025-09-17,Approved,Char
IG_ADVS_GSKADaMMDES1.IT_FASFL_GSKADaMADVSMDE1,130,ADVS,FASFL,Full Analysis Set Population Flag,text,1,,,,No,CL_NY_GSKC66742VD1,,,,,,,,,,,,2025-09-17,Approved,Char
IG_ADVS_GSKADaMMDES1.IT_ITTFL_GSKADaMADVSMDE1,140,ADVS,ITTFL,Intent-To-Treat Population Flag,text,1,,,,No,CL_NY_GSKC66742VD1,,,,,,,,,,,,2025-09-17,Approved,Char
IG_ADVS_GSKADaMMDES1.IT_SAFFL_GSKADaMADVSMDE1,150,ADVS,SAFFL,Safety Population Flag,text,1,,,,No,CL_NY_GSKC66742VD1,,,,,,,,,,,,2025-09-17,Approved,Char
IG_ADVS_GSKADaMMDES1.IT_PPROTFL_GSKADaMADVSMDE1,160,ADVS,PPROTFL,Per-Protocol Population Flag,text,1,,,,No,CL_NY_GSKC66742VD1,,,,,,,,,,,,2025-09-17,Approved,Char
IG_ADVS_GSKADaMMDES1.IT_SEX_GSKADaMADVSMDE1,70,ADVS,SEX,Sex,text,1,,,,No,CL_SEX_GSKC66731VD1,,,,,,,,,,,,2025-09-17,Approved,Char
IG_ADVS_GSKADaMMDES1.IT_SHIFT2N_GSKADaMADVSMDE1,840,ADVS,SHIFT2N,Shift 2 (N),text,8,,,,No,CL_ADVS_TOXSHIFT1N_S4040012VD1,,,,,MT_SHIFT2N_GSKADaMADVSMDE1,,,,,,,2025-09-17,Approved,Char
IG_ADVS_GSKADaMMDES1.IT_SHIFT1N_GSKADaMADVSMDE1,820,ADVS,SHIFT1N,Shift 1 (N),text,8,,,,No,CL_ADVS_SHIFT1N_S4040010VD1,,,,,MT_SHIFT1N_GSKADaMADVSMDE1,,,,,,,2025-09-17,Approved,Char
IG_ADVS_GSKADaMMDES1.IT_SHIFT3N_GSKADaMADVSMDE1,860,ADVS,SHIFT3N,Shift 3 (N),text,8,,,,No,CL_TOXSHIFT2N_S4040014VD1,,,,,MT_SHIFT3N_GSKADaMADVSMDE1,,,,,,,2025-09-17,Approved,Char
IG_ADVS_GSKADaMMDES1.IT_SHIFT4_GSKADaMADVSMDE1,870,ADVS,SHIFT4,Shift 4,text,100,,,,No,CL_TOXSHIFT3C_S4040015VD1,,,,,,,,,,,,2025-09-17,Approved,Char
IG_ADVS_GSKADaMMDES1.IT_ARACE_GSKADaMADVSMDE1,90,ADVS,ARACE,Analysis Race,text,100,,,,No,CL_ARACE_S404005VD1,,,,,,,,,,,,2025-09-17,Approved,Char
IG_ADVS_GSKADaMMDES1.IT_SHIFT3_GSKADaMADVSMDE1,850,ADVS,SHIFT3,Shift 3,text,100,,,,No,CL_TOXSHIFT2C_S4040013VD1,,,,,,,,,,,,2025-09-17,Approved,Char
IG_ADVS_GSKADaMMDES1.IT_ACOUNTRY_GSKADaMADVSMDE1,110,ADVS,ACOUNTRY,Analysis Country,text,100,,,,No,CL_ACOUNTRY_S404008VD1,,,,,,,,,,,Permissible,2025-09-17,Approved,Char
IG_ADVS_GSKADaMMDES1.IT_SHIFT1_GSKADaMADVSMDE1,810,ADVS,SHIFT1,Shift 1,text,100,,,,No,CL_ADVS_SHIFT1C_S404009VD1,,,,,,,,,,,,2025-09-17,Approved,Char
IG_ADVS_GSKADaMMDES1.IT_SHIFT4N_GSKADaMADVSMDE1,880,ADVS,SHIFT4N,Shift 4 (N),text,8,,,,No,CL_TOXSHIFT3N_S4040016VD1,,,,,MT_SHIFT4N_GSKADaMADVSMDE1,,,,,,,2025-09-17,Approved,Char
IG_ADVS_GSKADaMMDES1.IT_DTYPE_GSKADaMADVSMDE1,730,ADVS,DTYPE,Derivation Type,text,20,,,,No,CL_DTYPE_S4040032VD1,,,,,,,,,,,,2025-09-17,Approved,Char
IG_ADVS_GSKADaMMDES1.IT_CHGCAT1_GSKADaMADVSMDE1,710,ADVS,CHGCAT1,Change from Baseline Category 1,text,60,,,,No,CL_CHGCAT1C_S4040033VD1,,,,,,,,,,,,2025-09-17,Approved,Char
IG_ADVS_GSKADaMMDES1.IT_PARAM_GSKADaMADVSMDE1,480,ADVS,PARAM,Parameter,text,200,,,3,Yes,CL_ADVS_PARAM_S4040043VD1,,,,,,,,,,,Required,2025-09-17,Approved,Char
IG_ADVS_GSKADaMMDES1.IT_PARAMCD_GSKADaMADVSMDE1,490,ADVS,PARAMCD,Parameter Code,text,8,,,,Yes,CL_ADVS_PARAMCD_S4040044VD1,,,,,,,,,,,Required,2025-09-17,Approved,Char
IG_ADVS_GSKADaMMDES1.IT_ATOXGRN_GSKADaMADVSMDE1,750,ADVS,ATOXGRN,Analysis Toxicity Grade (N),text,8,,,,No,CL_TOXGRN_S4040042VD1,,,,,,,,,,,,2025-09-17,Approved,Char
IG_ADVS_GSKADaMMDES1.IT_BTOXGRN_GSKADaMADVSMDE1,770,ADVS,BTOXGRN,Baseline Toxicity Grade (N),text,8,,,,No,CL_TOXGRN_S4040042VD1,,,,,,,,,,,,2025-09-17,Approved,Char
IG_ADVS_GSKADaMMDES1.IT_A1IND_GSKADaMADVSMDE1,680,ADVS,A1IND,Analysis Range 1 Indicator,text,40,,,,No,CL_A1IND_S404001VD1,,,,,,,,,,,,2025-09-17,Approved,Char
IG_ADVS_GSKADaMMDES1.IT_B1IND_GSKADaMADVSMDE1,690,ADVS,B1IND,Baseline Analysis Range 1 Indicator,text,40,,,,No,CL_A1IND_S404001VD1,,,,,MT_B1IND_GSKADaMADVSMDE1,,,,,,,2025-09-17,Approved,Char
IG_ADVS_GSKADaMMDES1.IT_ABLFL_GSKADaMADVSMDE1,580,ADVS,ABLFL,Baseline Record Flag,text,1,,,,No,CL_Y_BLANK_S404004VD1,,,,,MT_ABLFL_GSKADaMADVSMDE1,,,,,,,2025-09-17,Approved,Char
IG_ADVS_GSKADaMMDES1.IT_APBLFL_GSKADaMADVSMDE1,600,ADVS,APBLFL,Analysis Post-Baseline Flag,text,1,,,,No,CL_Y_BLANK_S404004VD1,,,,,MT_APBLFL_GSKADaMADVSMDE1,,,,,,,2025-09-17,Approved,Char
IG_ADVS_GSKADaMMDES1.IT_ANL61FL_GSKADaMADVSMDE1,780,ADVS,ANL61FL,Analysis Flag 61 WC AVAL Shift,text,1,,,,No,CL_Y_BLANK_S404004VD1,,,,,MT_ANL61FL_GSKADaMADVSMDE1,,,,,,,2025-09-17,Approved,Char
IG_ADVS_GSKADaMMDES1.IT_ANL62FL_GSKADaMADVSMDE1,790,ADVS,ANL62FL,Analysis Flag 62 WC CHG Shift,text,1,,,,No,CL_Y_BLANK_S404004VD1,,,,,MT_ANL62FL_GSKADaMADVSMDE1,,,,,,,2025-09-17,Approved,Char
IG_ADVS_GSKADaMMDES1.IT_ANL63FL_GSKADaMADVSMDE1,800,ADVS,ANL63FL,Analysis Flag 63 WC Max Grade Shift,text,1,,,,No,CL_Y_BLANK_S404004VD1,,,,,MT_ANL63FL_GSKADaMADVSMDE1,,,,,,,2025-09-17,Approved,Char
IG_ADVS_GSKADaMMDES1.IT_ANL71FL_GSKADaMADVSMDE1,940,ADVS,ANL71FL,Analysis Flag 71 Any CHG Critical,text,1,,,,No,CL_Y_BLANK_S404004VD1,,,,,MT_ANL71FL_GSKADaMADVSMDE1,,,,,,,2025-09-17,Approved,Char
IG_ADVS_GSKADaMMDES1.IT_ANL72FL_GSKADaMADVSMDE1,950,ADVS,ANL72FL,Analysis Flag 72 Any AVAL Critical,text,1,,,,No,CL_Y_BLANK_S404004VD1,,,,,MT_ANL72FL_GSKADaMADVSMDE1,,,,,,,2025-09-17,Approved,Char
IG_ADVS_GSKADaMMDES1.IT_ANL81FL_GSKADaMADVSMDE1,960,ADVS,ANL81FL,Analysis Flag 81 Any Critical NR/PCI,text,1,,,,No,CL_Y_BLANK_S404004VD1,,,,,MT_ANL81FL_GSKADaMADVSMDE1,,,,,,,2025-09-17,Approved,Char
IG_ADVS_GSKADaMMDES1.IT_ARACEN_GSKADaMADVSMDE1,100,ADVS,ARACEN,Analysis Race (N),text,8,,,,No,CL_ARACEN_S404006VD1,,,,,,,,,,,,2025-09-17,Approved,Char
IG_ADVS_GSKADaMMDES1.IT_SEXN_GSKADaMADVSMDE1,80,ADVS,SEXN,Sex (N),text,8,,,,No,CL_SEXN_S404007VD1,,,,,,,,,,,,2025-09-17,Approved,Char
IG_ADVS_GSKADaMMDES1.IT_A1INDCD_GSKADaMADVSMDE1,670,ADVS,A1INDCD,Analysis Range 1 Code Indicator,text,1,,,,No,CL_A1INDCD_S404002VD1,,,,,MT_A1INDCD_GSKADaMADVSMDE1,,,,,,,2025-09-17,Approved,Char
IG_ADVS_GSKADaMMDES1.IT_CHGCA1CD_GSKADaMADVSMDE1,700,ADVS,CHGCA1CD,Change from Baseline Category 1 Code,text,2,,,,No,CL_CHGCA1CD_S404003VD1,,,,,MT_CHGCA1CD_GSKADaMADVSMDE1,,,,,,,2025-09-17,Approved,Char
IG_ADVS_GSKADaMMDES1.IT_PARAMN_GSKADaMADVSMDE1,500,ADVS,PARAMN,Parameter (N),text,8,,,,No,CL_ADVS_PARAMN_S4040045VD1,,,,,,,,,,,,2025-09-17,Approved,Char
IG_ADVS_GSKADaMMDES1.IT_SHIFT2_GSKADaMADVSMDE1,830,ADVS,SHIFT2,Shift 2,text,100,,,,No,CL_ADVS_TOXSHIFT1C_S4040011VD1,,,,,,,,,,,,2025-09-17,Approved,Char
IG_ADVS_GSKADaMMDES1.IT_ATOXGR_GSKADaMADVSMDE1,740,ADVS,ATOXGR,Analysis Toxicity Grade,text,7,,,,No,CL_TOXGR_S4040041VD1,,,,,MT_ATOXGR_GSKADaMADVSMDE1,,,,,,,2025-09-17,Approved,Char
IG_ADVS_GSKADaMMDES1.IT_BTOXGR_GSKADaMADVSMDE1,760,ADVS,BTOXGR,Baseline Toxicity Grade,text,7,,,,No,CL_TOXGR_S4040041VD1,,,,,MT_BTOXGR_GSKADaMADVSMDE1,,,,,,,2025-09-17,Approved,Char
IG_ADSL_GSKADaMMDES1.IT_STUDYID_GSKADaMADSLMDE1,10,ADSL,STUDYID,Study Identifier,text,9,,,1,Yes,,,,,,,,,,,,Required,2025-09-17,Approved,Char
IG_ADSL_GSKADaMMDES1.IT_SITEID_GSKADaMADSLMDE1,20,ADSL,SITEID,Study Site Identifier,text,10,,,,Yes,,,,,,,,,,,,Required,2025-09-17,Approved,Char
IG_ADSL_GSKADaMMDES1.IT_USUBJID_GSKADaMADSLMDE1,30,ADSL,USUBJID,Unique Subject Identifier,text,30,,,2,Yes,,,,,,,,,,,,Required,2025-09-17,Approved,Char
IG_ADSL_GSKADaMMDES1.IT_SUBJID_GSKADaMADSLMDE1,40,ADSL,SUBJID,Subject Identifier for the Study,text,20,,,,Yes,,,,,,,,,,,,Required,2025-09-17,Approved,Char
IG_ADSL_GSKADaMMDES1.IT_INVID_GSKADaMADSLMDE1,70,ADSL,INVID,Investigator Identifier,text,20,,,,Yes,,,,,,,,,,,,Required,2025-09-17,Approved,Char
IG_ADSL_GSKADaMMDES1.IT_INVNAM_GSKADaMADSLMDE1,80,ADSL,INVNAM,Investigator Name,text,100,,,,No,,,,,,,,,,,,Permissible,2025-09-17,Approved,Char
IG_ADSL_GSKADaMMDES1.IT_SITEGR1_GSKADaMADSLMDE1,90,ADSL,SITEGR1,Pooled Site Group 1,text,100,,,,No,,,,,,,,,,,,Permissible,2025-09-17,Approved,Char
IG_ADSL_GSKADaMMDES1.IT_RACEGR1_GSKADaMADSLMDE1,200,ADSL,RACEGR1,Pooled Race Group 1,text,100,,,,No,,,,,,,,,,,,Permissible,2025-09-17,Approved,Char
IG_ADSL_GSKADaMMDES1.IT_ARM_GSKADaMADSLMDE1,490,ADSL,ARM,Description of Planned Arm,text,200,,,,Yes,,,,,,,,,,,,Required,2025-09-17,Approved,Char
IG_ADSL_GSKADaMMDES1.IT_ARMCD_GSKADaMADSLMDE1,500,ADSL,ARMCD,Planned Arm Code,text,8,,,,No,,,,,,,,,,,,Permissible,2025-09-17,Approved,Char
IG_ADSL_GSKADaMMDES1.IT_ACTARM_GSKADaMADSLMDE1,510,ADSL,ACTARM,Description of Actual Arm,text,200,,,,No,,,,,,,,,,,,,2025-09-17,Approved,Char
IG_ADSL_GSKADaMMDES1.IT_ACTARMCD_GSKADaMADSLMDE1,520,ADSL,ACTARMCD,Actual Arm Code,text,8,,,,No,,,,,,,,,,,,Permissible,2025-09-17,Approved,Char
IG_ADSL_GSKADaMMDES1.IT_TRTSEQP_GSKADaMADSLMDE1,530,ADSL,TRTSEQP,Planned Sequence of Treatments,text,200,,,,No,,,,,,,,,,,,,2025-09-17,Approved,Char
IG_ADSL_GSKADaMMDES1.IT_TRTSEQA_GSKADaMADSLMDE1,550,ADSL,TRTSEQA,Actual Sequence of Treatments,text,200,,,,No,,,,,,,,,,,,,2025-09-17,Approved,Char
IG_ADSL_GSKADaMMDES1.IT_TRT01P_GSKADaMADSLMDE1,570,ADSL,TRT01P,Planned Treatment for Period 01,text,100,,,,Yes,,,,,,,,,,,,Required,2025-09-17,Approved,Char
IG_ADSL_GSKADaMMDES1.IT_TRT01A_GSKADaMADSLMDE1,590,ADSL,TRT01A,Actual Treatment for Period 01,text,100,,,,No,,,,,,,,,,,,,2025-09-17,Approved,Char
IG_ADSL_GSKADaMMDES1.IT_TR01PG1_GSKADaMADSLMDE1,610,ADSL,TR01PG1,Planned Pooled Treatment 1 for Period 01,text,100,,,,No,,,,,,,,,,,,Permissible,2025-09-17,Approved,Char
IG_ADSL_GSKADaMMDES1.IT_TR01AG1_GSKADaMADSLMDE1,630,ADSL,TR01AG1,Actual Pooled Treatment 1 for Period 01,text,100,,,,No,,,,,,,,,,,,,2025-09-17,Approved,Char
IG_ADSL_GSKADaMMDES1.IT_APHASE1_GSKADaMADSLMDE1,910,ADSL,APHASE1,Description of Phase 1,text,200,,,,No,,,,,,,,,,,,Permissible,2025-09-17,Approved,Char
IG_ADSL_GSKADaMMDES1.IT_DTHDTF_GSKADaMADSLMDE1,1040,ADSL,DTHDTF,Date of Death Imputation Flag,text,1,,,,No,,,,,,MT_DTHDTF_GSKADaMADSLMDE1,,,,,,Permissible,2025-09-17,Approved,Char
IG_ADSL_GSKADaMMDES1.IT_DTHCAUS_GSKADaMADSLMDE1,1050,ADSL,DTHCAUS,Cause of Death,text,200,,,,No,,,,,,,,,,,,Permissible,2025-09-17,Approved,Char
IG_ADSL_GSKADaMMDES1.IT_ARACEDET_GSKADaMADSLMDE1,1150,ADSL,ARACEDET,Analysis Race Detail,text,200,,,,No,,,,,,MT_ARACEDET_GSKADaMADSLMDE1,,,,,,Permissible,2025-09-17,Approved,Char
IG_ADSL_GSKADaMMDES1.IT_VLBLGR1_GSKADaMADSLMDE1,1210,ADSL,VLBLGR1,BL Plasma HIV-1 RNA Group 1,text,32,,,,No,,,,,,,,,,,,Permissible,2025-09-17,Approved,Char
IG_ADSL_GSKADaMMDES1.IT_VLSCGR1_GSKADaMADSLMDE1,1230,ADSL,VLSCGR1,Scr Plasma HIV-1 RNA Group 1,text,32,,,,No,,,,,,,,,,,,Permissible,2025-09-17,Approved,Char
IG_ADSL_GSKADaMMDES1.IT_CD4BLGR1_GSKADaMADSLMDE1,1320,ADSL,CD4BLGR1,BL CD4 Cell Count Group 1,text,32,,,,No,,,,,,,,,,,,Permissible,2025-09-17,Approved,Char
IG_ADSL_GSKADaMMDES1.IT_CD4SCGR1_GSKADaMADSLMDE1,1340,ADSL,CD4SCGR1,Scr CD4 Cell Count Group 1,text,32,,,,No,,,,,,,,,,,,Permissible,2025-09-17,Approved,Char
IG_ADSL_GSKADaMMDES1.IT_HIVSB_GSKADaMADSLMDE1,1390,ADSL,HIVSB,HIV Subtype,text,32,,,,No,,,,,,,,,,,,Permissible,2025-09-17,Approved,Char
IG_ADSL_GSKADaMMDES1.IT_HIVSBGR1_GSKADaMADSLMDE1,1400,ADSL,HIVSBGR1,HIV Subtype Group 1,text,32,,,,No,,,,,,,,,,,,Permissible,2025-09-17,Approved,Char
IG_ADSL_GSKADaMMDES1.IT_CDCCABL_GSKADaMADSLMDE1,1420,ADSL,CDCCABL,CDC HIV Classification at Baseline,text,200,,,,No,,,,,,,,,,,,Permissible,2025-09-17,Approved,Char
IG_ADSL_GSKADaMMDES1.IT_HBVBL_GSKADaMADSLMDE1,1440,ADSL,HBVBL,Hepatitis B Test Result at Baseline,text,32,,,,No,,,,,,MT_HBVBL_GSKADaMADSLMDE1,,,,,,Permissible,2025-09-17,Approved,Char
IG_ADSL_GSKADaMMDES1.IT_HCVBL_GSKADaMADSLMDE1,1460,ADSL,HCVBL,Hepatitis C Test Result at Baseline,text,32,,,,No,,,,,,MT_HCVBL_GSKADaMADSLMDE1,,,,,,Permissible,2025-09-17,Approved,Char
IG_ADSL_GSKADaMMDES1.IT_HBCVBL_GSKADaMADSLMDE1,1480,ADSL,HBCVBL,BL Hepatitis B and C Test Result,text,32,,,,No,,,,,,MT_HBCVBL_GSKADaMADSLMDE1,,,,,,Permissible,2025-09-17,Approved,Char
IG_ADSL_GSKADaMMDES1.IT_HIVRK_GSKADaMADSLMDE1,1530,ADSL,HIVRK,Known HIV Risk Factor,text,32,,,,No,,,,,,,,,,,,Permissible,2025-09-17,Approved,Char
IG_ADSL_GSKADaMMDES1.IT_HIVRKGR1_GSKADaMADSLMDE1,1550,ADSL,HIVRKGR1,Known HIV Risk Factor Group 1,text,32,,,,No,,,,,,,,,,,,Permissible,2025-09-17,Approved,Char
IG_ADSL_GSKADaMMDES1.IT_DMBLFL_GSKADaMADSLMDE1,1590,ADSL,DMBLFL,Pres. of Diabetes Mellitus at BL Flag,text,1,,,,No,,,,,,,,,,,,Permissible,2025-09-17,Approved,Char
IG_ADSL_GSKADaMMDES1.IT_HTNBLFL_GSKADaMADSLMDE1,1600,ADSL,HTNBLFL,Pres. of Hypertension at Baseline Flag,text,1,,,,No,,,,,,,,,,,,Permissible,2025-09-17,Approved,Char
IG_ADSL_GSKADaMMDES1.IT_TDFBL_GSKADaMADSLMDE1,1610,ADSL,TDFBL,Tenofovir taken at Baseline Flag,text,1,,,,No,,,,,,,,,,,,Permissible,2025-09-17,Approved,Char
IG_ADSL_GSKADaMMDES1.IT_TBBL_GSKADaMADSLMDE1,1620,ADSL,TBBL,TB Status at Baseline,text,1,,,,No,,,,,,,,,,,,Permissible,2025-09-17,Approved,Char
IG_ADSL_GSKADaMMDES1.IT_SUSMHIS_GSKADaMADSLMDE1,1630,ADSL,SUSMHIS,Smoking Status,text,32,,,,No,,,,,,,,,,,,Permissible,2025-09-17,Approved,Char
IG_ADSL_GSKADaMMDES1.IT_ASTRATUM_GSKADaMADSLMDE1,1650,ADSL,ASTRATUM,Analysis Strata,text,32,,,,No,,,,,,MT_ASTRATUM_GSKADaMADSLMDE1,,,,,,Permissible,2025-09-17,Approved,Char
IG_ADSL_GSKADaMMDES1.IT_BMIBLGR1_GSKADaMADSLMDE1,1660,ADSL,BMIBLGR1,BL BMI Group 1,text,32,,,,No,,,,,,,,,,,,Permissible,2025-09-17,Approved,Char
IG_ADSL_GSKADaMMDES1.IT_OSSBLGR1_GSKADaMADSLMDE1,1680,ADSL,OSSBLGR1,Baseline OSS Group 1,text,200,,,,No,,,,,,,,,,,,Permissible,2025-09-17,Approved,Char
IG_ADSL_GSKADaMMDES1.IT_PSSBLGR1_GSKADaMADSLMDE1,1690,ADSL,PSSBLGR1,Baseline PSS Group 1,text,200,,,,No,,,,,,,,,,,,Permissible,2025-09-17,Approved,Char
IG_ADSL_GSKADaMMDES1.IT_GSSBLGR1_GSKADaMADSLMDE1,1700,ADSL,GSSBLGR1,Baseline GSS Group 1,text,200,,,,No,,,,,,,,,,,,Permissible,2025-09-17,Approved,Char
IG_ADSL_GSKADaMMDES1.IT_STRATA_GSKADaMADSLMDE1,1740,ADSL,STRATA,Strata,text,200,,,,No,,,,,,,,,,,,Permissible,2025-09-17,Approved,Char
IG_ADSL_GSKADaMMDES1.IT_REGION1_GSKADaMADSLMDE1,1750,ADSL,REGION1,Geographic Region 1,text,20,,,,No,,,,,,MT_REGION1_GSKADaMADSLMDE1,,,,,,Permissible,2025-09-17,Approved,Char
IG_ADSL_GSKADaMMDES1.IT_SITEINV_GSKADaMADSLMDE1,1770,ADSL,SITEINV,Site/ Investigator Name,text,200,,,,No,,,,,,MT_SITEINV_GSKADaMADSLMDE1,,,,,,Permissible,2025-09-17,Approved,Char
IG_ADSL_GSKADaMMDES1.IT_AAGE1U_GSKADaMADSLMDE1,1810,ADSL,AAGE1U,Analysis Age 1 Units,text,10,,,,No,,,,,,MT_AAGE1U_GSKADaMADSLMDE1,,,,,,,2025-09-17,Approved,Char
IG_ADSL_GSKADaMMDES1.IT_AAGE2U_GSKADaMADSLMDE1,1830,ADSL,AAGE2U,Analysis Age 2 Units,text,10,,,,No,,,,,,MT_AAGE2U_GSKADaMADSLMDE1,,,,,,,2025-09-17,Approved,Char
IG_ADSL_GSKADaMMDES1.IT_GESAGEU_GSKADaMADSLMDE1,1850,ADSL,GESAGEU,Gestational Age Units,text,10,,,,No,,,,,,,,,,,,,2025-09-17,Approved,Char
IG_ADSL_GSKADaMMDES1.IT_P01S1_GSKADaMADSLMDE1,2150,ADSL,P01S1,Description of Period 01 Subperiod 1,text,200,,,,No,,,,,,,,,,,,Permissible,2025-09-17,Approved,Char
IG_ADSL_GSKADaMMDES1.IT_P01S2_GSKADaMADSLMDE1,2160,ADSL,P01S2,Description of Period 01 Subperiod 2,text,200,,,,No,,,,,,,,,,,,Permissible,2025-09-17,Approved,Char
IG_ADSL_GSKADaMMDES1.IT_COHORT_GSKADaMADSLMDE1,2170,ADSL,COHORT,Cohort,text,200,,,,No,,,,,,,,,,,,,2025-09-17,Approved,Char
IG_ADSL_GSKADaMMDES1.IT_BRTHDTC_GSKADaMADSLMDE1,1780,ADSL,BRTHDTC,Date/Time of Birth,datetime,,,,,No,,,,,,,,,,,,Permissible,2025-09-17,Approved,Char
IG_ADSL_GSKADaMMDES1.IT_HEIGHTBL_GSKADaMADSLMDE1,1100,ADSL,HEIGHTBL,Height (cm) at Baseline,integer,8,,,,No,,,,,,,,,,,,Permissible,2025-09-17,Approved,Num
IG_ADSL_GSKADaMMDES1.IT_WEIGHTBL_GSKADaMADSLMDE1,1110,ADSL,WEIGHTBL,Weight (kg) at Baseline,integer,8,,,,No,,,,,,,,,,,,Permissible,2025-09-17,Approved,Num
IG_ADSL_GSKADaMMDES1.IT_BMIBL_GSKADaMADSLMDE1,1120,ADSL,BMIBL,BMI (kg/m^2) at Baseline,integer,8,,,,No,,,,,,,,,,,,Permissible,2025-09-17,Approved,Num
IG_ADSL_GSKADaMMDES1.IT_VLL10BL_GSKADaMADSLMDE1,1270,ADSL,VLL10BL,Log 10 of Plasma HIV-1 RNA at Baseline,integer,8,,,,No,,,,,,MT_VLL10BL_GSKADaMADSLMDE1,,,,,,Permissible,2025-09-17,Approved,Num
IG_ADSL_GSKADaMMDES1.IT_VLL10SC_GSKADaMADSLMDE1,1290,ADSL,VLL10SC,Log 10 of Plasma HIV-1 RNA at Screening,integer,8,,,,No,,,,,,MT_VLL10SC_GSKADaMADSLMDE1,,,,,,Permissible,2025-09-17,Approved,Num
IG_ADSL_GSKADaMMDES1.IT_CD4L10BL_GSKADaMADSLMDE1,1360,ADSL,CD4L10BL,Log 10 CD4 Cell Count at Baseline,integer,8,,,,No,,,,,,MT_CD4L10BL_GSKADaMADSLMDE1,,,,,,Permissible,2025-09-17,Approved,Num
IG_ADSL_GSKADaMMDES1.IT_CD4PCTBL_GSKADaMADSLMDE1,1370,ADSL,CD4PCTBL,CD4 Percentage at Baseline,integer,8,,,,No,,,,,,MT_CD4PCTBL_GSKADaMADSLMDE1,,,,,,Permissible,2025-09-17,Approved,Num
IG_ADSL_GSKADaMMDES1.IT_CD4CD8BL_GSKADaMADSLMDE1,1380,ADSL,CD4CD8BL,Ratio of CD4 to CD8 at Baseline,integer,8,,,,No,,,,,,MT_CD4CD8BL_GSKADaMADSLMDE1,,,,,,Permissible,2025-09-17,Approved,Num
IG_ADSL_GSKADaMMDES1.IT_SITEGR1N_GSKADaMADSLMDE1,100,ADSL,SITEGR1N,Pooled Site Group 1 (N),integer,8,,,,No,,,,,,,,,,,,Permissible,2025-09-17,Approved,Num
IG_ADSL_GSKADaMMDES1.IT_AGE_GSKADaMADSLMDE1,110,ADSL,AGE,Age,integer,8,,,,Yes,,,,,,,,,,,,Required,2025-09-17,Approved,Num
IG_ADSL_GSKADaMMDES1.IT_ETHNICN_GSKADaMADSLMDE1,170,ADSL,ETHNICN,Ethnicity (N),integer,8,,,,No,,,,,,,,,,,,Permissible,2025-09-17,Approved,Num
IG_ADSL_GSKADaMMDES1.IT_RACEN_GSKADaMADSLMDE1,190,ADSL,RACEN,Race (N),integer,8,,,,No,,,,,,,,,,,,Permissible,2025-09-17,Approved,Num
IG_ADSL_GSKADaMMDES1.IT_RACEGR1N_GSKADaMADSLMDE1,210,ADSL,RACEGR1N,Pooled Race Group 1 (N),integer,8,,,,No,,,,,,,,,,,,Permissible,2025-09-17,Approved,Num
IG_ADSL_GSKADaMMDES1.IT_TRTSEQPN_GSKADaMADSLMDE1,540,ADSL,TRTSEQPN,Planned Sequence of Treatments (N),integer,8,,,,No,,,,,,,,,,,,,2025-09-17,Approved,Num
IG_ADSL_GSKADaMMDES1.IT_TRTSEQAN_GSKADaMADSLMDE1,560,ADSL,TRTSEQAN,Actual Sequence of Treatments (N),integer,8,,,,No,,,,,,,,,,,,,2025-09-17,Approved,Num
IG_ADSL_GSKADaMMDES1.IT_TRT01PN_GSKADaMADSLMDE1,580,ADSL,TRT01PN,Planned Treatment for Period 01 (N),integer,8,,,,No,,,,,,,,,,,,,2025-09-17,Approved,Num
IG_ADSL_GSKADaMMDES1.IT_TRT01AN_GSKADaMADSLMDE1,600,ADSL,TRT01AN,Actual Treatment for Period 01 (N),integer,8,,,,No,,,,,,,,,,,,,2025-09-17,Approved,Num
IG_ADSL_GSKADaMMDES1.IT_TR01PG1N_GSKADaMADSLMDE1,620,ADSL,TR01PG1N,Planned Pooled Trt 1 for Period 01 (N),integer,8,,,,No,,,,,,MT_TR01PG1N_GSKADaMADSLMDE1,,,,,,Permissible,2025-09-17,Approved,Num
IG_ADSL_GSKADaMMDES1.IT_TR01AG1N_GSKADaMADSLMDE1,640,ADSL,TR01AG1N,Actual Pooled Trt 1 for Period 01 (N),integer,8,,,,No,,,,,,MT_TR01AG1N_GSKADaMADSLMDE1,,,,,,Permissible,2025-09-17,Approved,Num
IG_ADSL_GSKADaMMDES1.IT_TR01SDT_GSKADaMADSLMDE1,650,ADSL,TR01SDT,Date of First Exposure in Period 01,integer,8,,,,No,,,,,,MT_TR01SDT_GSKADaMADSLMDE1,,,,,,,2025-09-17,Approved,Num
IG_ADSL_GSKADaMMDES1.IT_TR01STM_GSKADaMADSLMDE1,660,ADSL,TR01STM,Time of First Exposure in Period 01,integer,8,,,,No,,,,,,MT_TR01STM_GSKADaMADSLMDE1,,,,,,,2025-09-17,Approved,Num
IG_ADSL_GSKADaMMDES1.IT_TR01SDTM_GSKADaMADSLMDE1,670,ADSL,TR01SDTM,Datetime of First Exposure in Period 01,integer,8,,,,No,,,,,,MT_TR01SDTM_GSKADaMADSLMDE1,,,,,,,2025-09-17,Approved,Num
IG_ADSL_GSKADaMMDES1.IT_TR01EDT_GSKADaMADSLMDE1,700,ADSL,TR01EDT,Date of Last Exposure in Period 01,integer,8,,,,No,,,,,,MT_TR01EDT_GSKADaMADSLMDE1,,,,,,,2025-09-17,Approved,Num
IG_ADSL_GSKADaMMDES1.IT_TR01ETM_GSKADaMADSLMDE1,710,ADSL,TR01ETM,Time of Last Exposure in Period 01,integer,8,,,,No,,,,,,MT_TR01ETM_GSKADaMADSLMDE1,,,,,,,2025-09-17,Approved,Num
IG_ADSL_GSKADaMMDES1.IT_TR01EDTM_GSKADaMADSLMDE1,720,ADSL,TR01EDTM,Datetime of Last Exposure in Period 01,integer,8,,,,No,,,,,,MT_TR01EDTM_GSKADaMADSLMDE1,,,,,,,2025-09-17,Approved,Num
IG_ADSL_GSKADaMMDES1.IT_AP01SDT_GSKADaMADSLMDE1,750,ADSL,AP01SDT,Period 01 Start Date,integer,8,,,,No,,,,,,MT_AP01SDT_GSKADaMADSLMDE1,,,,,,Permissible,2025-09-17,Approved,Num
IG_ADSL_GSKADaMMDES1.IT_AP01STM_GSKADaMADSLMDE1,760,ADSL,AP01STM,Period 01 Start Time,integer,8,,,,No,,,,,,MT_AP01STM_GSKADaMADSLMDE1,,,,,,Permissible,2025-09-17,Approved,Num
IG_ADSL_GSKADaMMDES1.IT_AP01SDTM_GSKADaMADSLMDE1,770,ADSL,AP01SDTM,Period 01 Start Datetime,integer,8,,,,No,,,,,,MT_AP01SDTM_GSKADaMADSLMDE1,,,,,,Permissible,2025-09-17,Approved,Num
IG_ADSL_GSKADaMMDES1.IT_AP01EDT_GSKADaMADSLMDE1,800,ADSL,AP01EDT,Period 01 End Date,integer,8,,,,No,,,,,,MT_AP01EDT_GSKADaMADSLMDE1,,,,,,Permissible,2025-09-17,Approved,Num
IG_ADSL_GSKADaMMDES1.IT_AP01ETM_GSKADaMADSLMDE1,810,ADSL,AP01ETM,Period 01 End Time,integer,8,,,,No,,,,,,MT_AP01ETM_GSKADaMADSLMDE1,,,,,,Permissible,2025-09-17,Approved,Num
IG_ADSL_GSKADaMMDES1.IT_AP01EDTM_GSKADaMADSLMDE1,820,ADSL,AP01EDTM,Period 01 End Datetime,integer,8,,,,No,,,,,,MT_AP01EDTM_GSKADaMADSLMDE1,,,,,,Permissible,2025-09-17,Approved,Num
IG_ADSL_GSKADaMMDES1.IT_PH1SDT_GSKADaMADSLMDE1,850,ADSL,PH1SDT,Phase 1 Start Date,integer,8,,,,No,,,,,,MT_PH1SDT_GSKADaMADSLMDE1,,,,,,Permissible,2025-09-17,Approved,Num
IG_ADSL_GSKADaMMDES1.IT_PH1STM_GSKADaMADSLMDE1,860,ADSL,PH1STM,Phase 1 Start Time,integer,8,,,,No,,,,,,MT_PH1STM_GSKADaMADSLMDE1,,,,,,Permissible,2025-09-17,Approved,Num
IG_ADSL_GSKADaMMDES1.IT_PH1SDTM_GSKADaMADSLMDE1,870,ADSL,PH1SDTM,Phase 1 Start Datetime,integer,8,,,,No,,,,,,MT_PH1SDTM_GSKADaMADSLMDE1,,,,,,Permissible,2025-09-17,Approved,Num
IG_ADSL_GSKADaMMDES1.IT_PH1EDT_GSKADaMADSLMDE1,880,ADSL,PH1EDT,Phase 1 End Date,integer,8,,,,No,,,,,,MT_PH1EDT_GSKADaMADSLMDE1,,,,,,Permissible,2025-09-17,Approved,Num
IG_ADSL_GSKADaMMDES1.IT_PH1ETM_GSKADaMADSLMDE1,890,ADSL,PH1ETM,Phase 1 End Time,integer,8,,,,No,,,,,,MT_PH1ETM_GSKADaMADSLMDE1,,,,,,Permissible,2025-09-17,Approved,Num
IG_ADSL_GSKADaMMDES1.IT_PH1EDTM_GSKADaMADSLMDE1,900,ADSL,PH1EDTM,Phase 1 End Datetime,integer,8,,,,No,,,,,,MT_PH1EDTM_GSKADaMADSLMDE1,,,,,,Permissible,2025-09-17,Approved,Num
IG_ADSL_GSKADaMMDES1.IT_RANDDT_GSKADaMADSLMDE1,920,ADSL,RANDDT,Date of Randomization,integer,8,,,,No,,,,,,MT_RANDDT_GSKADaMADSLMDE1,,,,,,,2025-09-17,Approved,Num
IG_ADSL_GSKADaMMDES1.IT_TRTSDT_GSKADaMADSLMDE1,930,ADSL,TRTSDT,Date of First Exposure to Treatment,integer,8,,,,No,,,,,,MT_TRTSDT_GSKADaMADSLMDE1,,,,,,,2025-09-17,Approved,Num
IG_ADSL_GSKADaMMDES1.IT_TRTSTM_GSKADaMADSLMDE1,940,ADSL,TRTSTM,Time of First Exposure to Treatment,integer,8,,,,No,,,,,,MT_TRTSTM_GSKADaMADSLMDE1,,,,,,Permissible,2025-09-17,Approved,Num
IG_ADSL_GSKADaMMDES1.IT_TRTSDTM_GSKADaMADSLMDE1,950,ADSL,TRTSDTM,Datetime of First Exposure to Treatment,integer,8,,,,No,,,,,,MT_TRTSDTM_GSKADaMADSLMDE1,,,,,,,2025-09-17,Approved,Num
IG_ADSL_GSKADaMMDES1.IT_TRTEDT_GSKADaMADSLMDE1,980,ADSL,TRTEDT,Date of Last Exposure to Treatment,integer,8,,,,No,,,,,,MT_TRTEDT_GSKADaMADSLMDE1,,,,,,,2025-09-17,Approved,Num
IG_ADSL_GSKADaMMDES1.IT_TRTETM_GSKADaMADSLMDE1,990,ADSL,TRTETM,Time of Last Exposure to Treatment,integer,8,,,,No,,,,,,MT_TRTETM_GSKADaMADSLMDE1,,,,,,Permissible,2025-09-17,Approved,Num
IG_ADSL_GSKADaMMDES1.IT_TRTEDTM_GSKADaMADSLMDE1,1000,ADSL,TRTEDTM,Datetime of Last Exposure to Treatment,integer,8,,,,No,,,,,,MT_TRTEDTM_GSKADaMADSLMDE1,,,,,,,2025-09-17,Approved,Num
IG_ADSL_GSKADaMMDES1.IT_DTHDT_GSKADaMADSLMDE1,1030,ADSL,DTHDT,Date of Death,integer,8,,,,No,,,,,,MT_DTHDT_GSKADaMADSLMDE1,,,,,,Permissible,2025-09-17,Approved,Num
IG_ADSL_GSKADaMMDES1.IT_SCRDT_GSKADaMADSLMDE1,1060,ADSL,SCRDT,Date of Screening,integer,8,,,,No,,,,,,MT_SCRDT_GSKADaMADSLMDE1,,,,,,Permissible,2025-09-17,Approved,Num
IG_ADSL_GSKADaMMDES1.IT_FSTCTDT_GSKADaMADSLMDE1,1070,ADSL,FSTCTDT,Date of First Study Contact,integer,8,,,,No,,,,,,MT_FSTCTDT_GSKADaMADSLMDE1,,,,,,Permissible,2025-09-17,Approved,Num
IG_ADSL_GSKADaMMDES1.IT_LSTCTDT_GSKADaMADSLMDE1,1080,ADSL,LSTCTDT,Date of Last Study Contact,integer,8,,,,No,,,,,,MT_LSTCTDT_GSKADaMADSLMDE1,,,,,,Permissible,2025-09-17,Approved,Num
IG_ADSL_GSKADaMMDES1.IT_BRTHDT_GSKADaMADSLMDE1,1090,ADSL,BRTHDT,Analysis Date of Birth,integer,8,,,,No,,,,,,MT_BRTHDT_GSKADaMADSLMDE1,,,,,,Permissible,2025-09-17,Approved,Num
IG_ADSL_GSKADaMMDES1.IT_VLBL_GSKADaMADSLMDE1,1170,ADSL,VLBL,Plasma HIV-1 RNA (c/mL) at Baseline,integer,8,,,,No,,,,,,MT_VLBL_GSKADaMADSLMDE1,,,,,,Permissible,2025-09-17,Approved,Num
IG_ADSL_GSKADaMMDES1.IT_VLSC_GSKADaMADSLMDE1,1190,ADSL,VLSC,Plasma HIV-1 RNA (c/mL) at Screening,integer,8,,,,No,,,,,,MT_VLSC_GSKADaMADSLMDE1,,,,,,Permissible,2025-09-17,Approved,Num
IG_ADSL_GSKADaMMDES1.IT_VLBLG1N_GSKADaMADSLMDE1,1220,ADSL,VLBLG1N,BL Plasma HIV-1 RNA Group 1 (N),integer,8,,,,No,,,,,,,,,,,,Permissible,2025-09-17,Approved,Num
IG_ADSL_GSKADaMMDES1.IT_VLSCG1N_GSKADaMADSLMDE1,1250,ADSL,VLSCG1N,Scr Plasma HIV-1 RNA Group 1 (N),integer,8,,,,No,,,,,,,,,,,,Permissible,2025-09-17,Approved,Num
IG_ADSL_GSKADaMMDES1.IT_CD4BL_GSKADaMADSLMDE1,1300,ADSL,CD4BL,CD4 Count at Baseline,integer,8,,,,No,,,,,,MT_CD4BL_GSKADaMADSLMDE1,,,,,,Permissible,2025-09-17,Approved,Num
IG_ADSL_GSKADaMMDES1.IT_CD4SC_GSKADaMADSLMDE1,1310,ADSL,CD4SC,CD4 Count at Screening,integer,8,,,,No,,,,,,MT_CD4SC_GSKADaMADSLMDE1,,,,,,Permissible,2025-09-17,Approved,Num
IG_ADSL_GSKADaMMDES1.IT_CD4BLG1N_GSKADaMADSLMDE1,1330,ADSL,CD4BLG1N,BL CD4 Cell Count Group 1 (N),integer,8,,,,No,,,,,,,,,,,,Permissible,2025-09-17,Approved,Num
IG_ADSL_GSKADaMMDES1.IT_CD4SCG1N_GSKADaMADSLMDE1,1350,ADSL,CD4SCG1N,Scr CD4 Cell Count Group 1 (N),integer,8,,,,No,,,,,,,,,,,,Permissible,2025-09-17,Approved,Num
IG_ADSL_GSKADaMMDES1.IT_HIVSBG1N_GSKADaMADSLMDE1,1410,ADSL,HIVSBG1N,HIV Subtype Group 1 (N),integer,8,,,,No,,,,,,,,,,,,Permissible,2025-09-17,Approved,Num
IG_ADSL_GSKADaMMDES1.IT_CDCCABLN_GSKADaMADSLMDE1,1430,ADSL,CDCCABLN,CDC HIV Classification at Baseline (N),integer,8,,,,No,,,,,,,,,,,,Permissible,2025-09-17,Approved,Num
IG_ADSL_GSKADaMMDES1.IT_HBVDT_GSKADaMADSLMDE1,1490,ADSL,HBVDT,Hepatitis B Test Result Date,integer,8,,,,No,,,,,,MT_HBVDT_GSKADaMADSLMDE1,,,,,,Permissible,2025-09-17,Approved,Num
IG_ADSL_GSKADaMMDES1.IT_HBVCODT_GSKADaMADSLMDE1,1500,ADSL,HBVCODT,HBV Co-Infection Date,integer,8,,,,No,,,,,,MT_HBVCODT_GSKADaMADSLMDE1,,,,,,Permissible,2025-09-17,Approved,Num
IG_ADSL_GSKADaMMDES1.IT_HCVDT_GSKADaMADSLMDE1,1510,ADSL,HCVDT,Hepatitis C Test Result Date,integer,8,,,,No,,,,,,MT_HCVDT_GSKADaMADSLMDE1,,,,,,Permissible,2025-09-17,Approved,Num
IG_ADSL_GSKADaMMDES1.IT_HIVRKN_GSKADaMADSLMDE1,1540,ADSL,HIVRKN,Known HIV Risk Factor (N),integer,8,,,,No,,,,,,,,,,,,Permissible,2025-09-17,Approved,Num
IG_ADSL_GSKADaMMDES1.IT_HIVRKG1N_GSKADaMADSLMDE1,1560,ADSL,HIVRKG1N,Known HIV Risk Factor Group 1 (N),integer,8,,,,No,,,,,,,,,,,,Permissible,2025-09-17,Approved,Num
IG_ADSL_GSKADaMMDES1.IT_HCVCODT_GSKADaMADSLMDE1,1570,ADSL,HCVCODT,HCV Co-Infection Date,integer,8,,,,No,,,,,,MT_HCVCODT_GSKADaMADSLMDE1,,,,,,Permissible,2025-09-17,Approved,Num
IG_ADSL_GSKADaMMDES1.IT_SUSMHISN_GSKADaMADSLMDE1,1640,ADSL,SUSMHISN,Smoking Status (N),integer,8,,,,No,,,,,,,,,,,,Permissible,2025-09-17,Approved,Num
IG_ADSL_GSKADaMMDES1.IT_BMIBLG1N_GSKADaMADSLMDE1,1670,ADSL,BMIBLG1N,BL BMI Group 1 (N),integer,8,,,,No,,,,,,,,,,,,Permissible,2025-09-17,Approved,Num
IG_ADSL_GSKADaMMDES1.IT_OSSBLG1N_GSKADaMADSLMDE1,1710,ADSL,OSSBLG1N,Baseline OSS Group 1 (N),integer,8,,,,No,,,,,,,,,,,,Permissible,2025-09-17,Approved,Num
IG_ADSL_GSKADaMMDES1.IT_PSSBLG1N_GSKADaMADSLMDE1,1720,ADSL,PSSBLG1N,Baseline PSS Group 1 (N),integer,8,,,,No,,,,,,,,,,,,Permissible,2025-09-17,Approved,Num
IG_ADSL_GSKADaMMDES1.IT_GSSBLG1N_GSKADaMADSLMDE1,1730,ADSL,GSSBLG1N,Baseline GSS Group 1 (N),integer,8,,,,No,,,,,,,,,,,,Permissible,2025-09-17,Approved,Num
IG_ADSL_GSKADaMMDES1.IT_REGION1N_GSKADaMADSLMDE1,1760,ADSL,REGION1N,Geographic Region 1 (N),integer,8,,,,No,,,,,,,,,,,,Permissible,2025-09-17,Approved,Num
IG_ADSL_GSKADaMMDES1.IT_AAGE1_GSKADaMADSLMDE1,1800,ADSL,AAGE1,Analysis Age 1,integer,8,,,,No,,,,,,MT_AAGE1_GSKADaMADSLMDE1,,,,,,,2025-09-17,Approved,Num
IG_ADSL_GSKADaMMDES1.IT_AAGE2_GSKADaMADSLMDE1,1820,ADSL,AAGE2,Analysis Age 2,integer,8,,,,No,,,,,,MT_AAGE2_GSKADaMADSLMDE1,,,,,,,2025-09-17,Approved,Num
IG_ADSL_GSKADaMMDES1.IT_GESAGE_GSKADaMADSLMDE1,1840,ADSL,GESAGE,Gestational Age in Weeks,integer,8,,,,No,,,,,,,,,,,,Permissible,2025-09-17,Approved,Num
IG_ADSL_GSKADaMMDES1.IT_RFICDT_GSKADaMADSLMDE1,2100,ADSL,RFICDT,Date of Informed Consent,integer,8,,,,No,,,,,,MT_RFICDT_GSKADaMADSLMDE1,,,,,,Permissible,2025-09-17,Approved,Num
IG_ADSL_GSKADaMMDES1.IT_RFPENDT_GSKADaMADSLMDE1,2110,ADSL,RFPENDT,Date of End of Participation,integer,8,,,,Yes,,,,,,MT_RFPENDT_GSKADaMADSLMDE1,,,,,,Required,2025-09-17,Approved,Num
IG_ADSL_GSKADaMMDES1.IT_P01S1SDT_GSKADaMADSLMDE1,2130,ADSL,P01S1SDT,Period 01 Subperiod 1 Start Date,integer,8,,,,No,,,,,,,,,,,,Permissible,2025-09-17,Approved,Num
IG_ADSL_GSKADaMMDES1.IT_P01S2SDT_GSKADaMADSLMDE1,2140,ADSL,P01S2SDT,Period 01 Subperiod 2 Start Date,integer,8,,,,No,,,,,,,,,,,,Permissible,2025-09-17,Approved,Num
IG_ADSL_GSKADaMMDES1.IT_COHORTN_GSKADaMADSLMDE1,2180,ADSL,COHORTN,Cohort (N),integer,8,,,,No,,,,,,,,,,,,,2025-09-17,Approved,Num
IG_ADSL_GSKADaMMDES1.IT_AGEU_GSKADaMADSLMDE1,120,ADSL,AGEU,Age Units,text,10,,,,Yes,CL_AGEU_GSKC66781VD1,,,,,,,,,,,Required,2025-09-17,Approved,Char
IG_ADSL_GSKADaMMDES1.IT_COUNTRY_GSKADaMADSLMDE1,50,ADSL,COUNTRY,Country,text,10,,,,Yes,CL_COUNTRY_GSKS980006VD1,,,,,,,,,,,Required,2025-09-17,Approved,Char
IG_ADSL_GSKADaMMDES1.IT_ETHNIC_GSKADaMADSLMDE1,160,ADSL,ETHNIC,Ethnicity,text,100,,,,Yes,CL_ETHNIC_GSKC66790VD1,,,,,,,,,,,Required,2025-09-17,Approved,Char
IG_ADSL_GSKADaMMDES1.IT_FASFL_GSKADaMADSLMDE1,230,ADSL,FASFL,Full Analysis Set Population Flag,text,1,,,,No,CL_NY_GSKC66742VD1,,,,,,,,,,,,2025-09-17,Approved,Char
IG_ADSL_GSKADaMMDES1.IT_SAFFL_GSKADaMADSLMDE1,250,ADSL,SAFFL,Safety Population Flag,text,1,,,,No,CL_NY_GSKC66742VD1,,,,,,,,,,,,2025-09-17,Approved,Char
IG_ADSL_GSKADaMMDES1.IT_ITTFL_GSKADaMADSLMDE1,270,ADSL,ITTFL,Intent-To-Treat Population Flag,text,1,,,,No,CL_NY_GSKC66742VD1,,,,,,,,,,,,2025-09-17,Approved,Char
IG_ADSL_GSKADaMMDES1.IT_PPROTFL_GSKADaMADSLMDE1,290,ADSL,PPROTFL,Per-Protocol Population Flag,text,1,,,,No,CL_NY_GSKC66742VD1,,,,,,,,,,,,2025-09-17,Approved,Char
IG_ADSL_GSKADaMMDES1.IT_COMPLFL_GSKADaMADSLMDE1,310,ADSL,COMPLFL,Completers Population Flag,text,1,,,,No,CL_NY_GSKC66742VD1,,,,,,,,,,,,2025-09-17,Approved,Char
IG_ADSL_GSKADaMMDES1.IT_RANDFL_GSKADaMADSLMDE1,330,ADSL,RANDFL,Randomized Population Flag,text,1,,,,No,CL_NY_GSKC66742VD1,,,,,,,,,,,,2025-09-17,Approved,Char
IG_ADSL_GSKADaMMDES1.IT_ENRLFL_GSKADaMADSLMDE1,350,ADSL,ENRLFL,Enrolled Population Flag,text,1,,,,No,CL_NY_GSKC66742VD1,,,,,,,,,,,,2025-09-17,Approved,Char
IG_ADSL_GSKADaMMDES1.IT_PKFL_GSKADaMADSLMDE1,390,ADSL,PKFL,PK Population Flag,text,1,,,,No,CL_NY_GSKC66742VD1,,,,,,,,,,,,2025-09-17,Approved,Char
IG_ADSL_GSKADaMMDES1.IT_SCRNFL_GSKADaMADSLMDE1,410,ADSL,SCRNFL,Screening Population Flag,text,1,,,,No,CL_NY_GSKC66742VD1,,,,,,,,,,,,2025-09-17,Approved,Char
IG_ADSL_GSKADaMMDES1.IT_CHNFL_GSKADaMADSLMDE1,430,ADSL,CHNFL,Chinese Population Flag,text,1,,,,No,CL_NY_GSKC66742VD1,,,,,,,,,,,,2025-09-17,Approved,Char
IG_ADSL_GSKADaMMDES1.IT_JPNFL_GSKADaMADSLMDE1,450,ADSL,JPNFL,Japanese Population Flag,text,1,,,,No,CL_NY_GSKC66742VD1,,,,,,,,,,,,2025-09-17,Approved,Char
IG_ADSL_GSKADaMMDES1.IT_EAFL_GSKADaMADSLMDE1,470,ADSL,EAFL,East Asian Population Flag,text,1,,,,No,CL_NY_GSKC66742VD1,,,,,,,,,,,,2025-09-17,Approved,Char
IG_ADSL_GSKADaMMDES1.IT_LSEFL_GSKADaMADSLMDE1,1200,ADSL,LSEFL,Liver Stopping Event Flag,text,1,,,,No,CL_NY_GSKC66742VD1,,,,,,,,,,,Permissible,2025-09-17,Approved,Char
IG_ADSL_GSKADaMMDES1.IT_HBVCOBL_GSKADaMADSLMDE1,1450,ADSL,HBVCOBL,HBV Co-infection at Baseline,text,1,,,,No,CL_NY_GSKC66742VD1,,,,,,,,,,,Permissible,2025-09-17,Approved,Char
IG_ADSL_GSKADaMMDES1.IT_HCVCOBL_GSKADaMADSLMDE1,1470,ADSL,HCVCOBL,HCV Co-infection at Baseline,text,1,,,,No,CL_NY_GSKC66742VD1,,,,,,,,,,,Permissible,2025-09-17,Approved,Char
IG_ADSL_GSKADaMMDES1.IT_HIVRKFL_GSKADaMADSLMDE1,1520,ADSL,HIVRKFL,Known HIV Risk Factor Flag,text,1,,,,No,CL_NY_GSKC66742VD1,,,,,,,,,,,Permissible,2025-09-17,Approved,Char
IG_ADSL_GSKADaMMDES1.IT_VITDBLFL_GSKADaMADSLMDE1,1580,ADSL,VITDBLFL,Vitamin D Use at Baseline Flag,text,1,,,,No,CL_NY_GSKC66742VD1,,,,,,,,,,,Permissible,2025-09-17,Approved,Char
IG_ADSL_GSKADaMMDES1.IT_SSSFL_GSKADaMADSLMDE1,1890,ADSL,SSSFL,Solicited Safety Population Flag,text,1,,,,No,CL_NY_GSKC66742VD1,,,,,,,,,,,,2025-09-17,Approved,Char
IG_ADSL_GSKADaMMDES1.IT_SSS01FL_GSKADaMADSLMDE1,1900,ADSL,SSS01FL,Solicited Safety Population Vac. 1 Flag,text,1,,,,No,CL_NY_GSKC66742VD1,,,,,,,,,,,,2025-09-17,Approved,Char
IG_ADSL_GSKADaMMDES1.IT_SSS02FL_GSKADaMADSLMDE1,1910,ADSL,SSS02FL,Solicited Safety Population Vac. 2 Flag,text,1,,,,No,CL_NY_GSKC66742VD1,,,,,,,,,,,,2025-09-17,Approved,Char
IG_ADSL_GSKADaMMDES1.IT_SSUFL_GSKADaMADSLMDE1,1920,ADSL,SSUFL,Unsolicited Safety Population Flag,text,1,,,,No,CL_NY_GSKC66742VD1,,,,,,,,,,,,2025-09-17,Approved,Char
IG_ADSL_GSKADaMMDES1.IT_SSU01FL_GSKADaMADSLMDE1,1930,ADSL,SSU01FL,Unsolicited Safety Pop. Vac. 1 Flag,text,1,,,,No,CL_NY_GSKC66742VD1,,,,,,,,,,,,2025-09-17,Approved,Char
IG_ADSL_GSKADaMMDES1.IT_SSU02FL_GSKADaMADSLMDE1,1940,ADSL,SSU02FL,Unsolicited Safety Pop. Vac. 2 Flag,text,1,,,,No,CL_NY_GSKC66742VD1,,,,,,,,,,,,2025-09-17,Approved,Char
IG_ADSL_GSKADaMMDES1.IT_ESFL_GSKADaMADSLMDE1,1950,ADSL,ESFL,Exposed Set Flag,text,1,,,,No,CL_NY_GSKC66742VD1,,,,,,,,,,,,2025-09-17,Approved,Char
IG_ADSL_GSKADaMMDES1.IT_ES01FL_GSKADaMADSLMDE1,1960,ADSL,ES01FL,First Vaccinated Population Flag,text,1,,,,No,CL_NY_GSKC66742VD1,,,,,,,,,,,,2025-09-17,Approved,Char
IG_ADSL_GSKADaMMDES1.IT_ES02FL_GSKADaMADSLMDE1,1970,ADSL,ES02FL,Second Vaccinated Population Flag,text,1,,,,No,CL_NY_GSKC66742VD1,,,,,,,,,,,,2025-09-17,Approved,Char
IG_ADSL_GSKADaMMDES1.IT_SSG01FL_GSKADaMADSLMDE1,1980,ADSL,SSG01FL,Gen Symp - Dose 1 - Screen completed,text,1,,,,No,CL_NY_GSKC66742VD1,,,,,,,,,,,,2025-09-17,Approved,Char
IG_ADSL_GSKADaMMDES1.IT_SSG02FL_GSKADaMADSLMDE1,1990,ADSL,SSG02FL,Gen Symp - Dose 2 - Screen completed,text,1,,,,No,CL_NY_GSKC66742VD1,,,,,,,,,,,,2025-09-17,Approved,Char
IG_ADSL_GSKADaMMDES1.IT_SSGFL_GSKADaMADSLMDE1,2000,ADSL,SSGFL,Gen Symp- At least one screen completed,text,1,,,,No,CL_NY_GSKC66742VD1,,,,,,,,,,,,2025-09-17,Approved,Char
IG_ADSL_GSKADaMMDES1.IT_SSL011FL_GSKADaMADSLMDE1,2010,ADSL,SSL011FL,Loc Symp - Dose 1 Vac. 1 - Screen compl.,text,1,,,,No,CL_NY_GSKC66742VD1,,,,,,,,,,,,2025-09-17,Approved,Char
IG_ADSL_GSKADaMMDES1.IT_SSL012FL_GSKADaMADSLMDE1,2020,ADSL,SSL012FL,Loc Symp - Dose 1 Vac. 2 - Screen compl.,text,1,,,,No,CL_NY_GSKC66742VD1,,,,,,,,,,,,2025-09-17,Approved,Char
IG_ADSL_GSKADaMMDES1.IT_SSL021FL_GSKADaMADSLMDE1,2030,ADSL,SSL021FL,Loc Symp - Dose 2 Vac 1 - Screen compl.,text,1,,,,No,CL_NY_GSKC66742VD1,,,,,,,,,,,,2025-09-17,Approved,Char
IG_ADSL_GSKADaMMDES1.IT_SSL022FL_GSKADaMADSLMDE1,2040,ADSL,SSL022FL,Loc Symp - Dose 2 Vac. 2- Screen compl.,text,1,,,,No,CL_NY_GSKC66742VD1,,,,,,,,,,,,2025-09-17,Approved,Char
IG_ADSL_GSKADaMMDES1.IT_SSLFL_GSKADaMADSLMDE1,2050,ADSL,SSLFL,Loc Symp- At least one screen completed,text,1,,,,No,CL_NY_GSKC66742VD1,,,,,,,,,,,,2025-09-17,Approved,Char
IG_ADSL_GSKADaMMDES1.IT_IEFL_GSKADaMADSLMDE1,2060,ADSL,IEFL,All criteria respected at inclusion flag,text,1,,,,No,CL_NY_GSKC66742VD1,,,,,,,,,,,,2025-09-17,Approved,Char
IG_ADSL_GSKADaMMDES1.IT_PPS01FL_GSKADaMADSLMDE1,2070,ADSL,PPS01FL,Per-Protocol Population 1 Flag,text,1,,,,No,CL_NY_GSKC66742VD1,,,,,,,,,,,,2025-09-17,Approved,Char
IG_ADSL_GSKADaMMDES1.IT_SBSET1FL_GSKADaMADSLMDE1,2080,ADSL,SBSET1FL,Immuno subset,text,1,,,,No,CL_NY_GSKC66742VD1,,,,,,,,,,,,2025-09-17,Approved,Char
IG_ADSL_GSKADaMMDES1.IT_SBSET2FL_GSKADaMADSLMDE1,2090,ADSL,SBSET2FL,CMI subset,text,1,,,,No,CL_NY_GSKC66742VD1,,,,,,,,,,,,2025-09-17,Approved,Char
IG_ADSL_GSKADaMMDES1.IT_RACE_GSKADaMADSLMDE1,180,ADSL,RACE,Race,text,100,,,,Yes,CL_RACE_GSKC74457VD1,,,,,,,,,,,Required,2025-09-17,Approved,Char
IG_ADSL_GSKADaMMDES1.IT_SEX_GSKADaMADSLMDE1,150,ADSL,SEX,Sex,text,1,,,,Yes,CL_SEX_GSKC66731VD1,,,,,,,,,,,Required,2025-09-17,Approved,Char
IG_ADSL_GSKADaMMDES1.IT_ARACE_GSKADaMADSLMDE1,1130,ADSL,ARACE,Analysis Race,text,100,,,,Yes,CL_ARACE_S404005VD1,,,,,MT_ARACE_GSKADaMADSLMDE1,,,,,,Required,2025-09-17,Approved,Char
IG_ADSL_GSKADaMMDES1.IT_ACOUNTRY_GSKADaMADSLMDE1,60,ADSL,ACOUNTRY,Analysis Country,text,100,,,,Yes,CL_ACOUNTRY_S404008VD1,,,,,,,,,,,Required,2025-09-17,Approved,Char
IG_ADSL_GSKADaMMDES1.IT_AGEGR1N_GSKADaMADSLMDE1,140,ADSL,AGEGR1N,Pooled Age Group 1 (N),text,8,,,,No,CL_AGEGR1_S4040046VD1,,,,,,,,,,,Permissible,2025-09-17,Approved,Char
IG_ADSL_GSKADaMMDES1.IT_AGEGR2N_GSKADaMADSLMDE1,1870,ADSL,AGEGR2N,Pooled Age Group 2 (N),text,8,,,,No,CL_AGEGR2_S4040049VD1,,,,,,,,,,,Permissible,2025-09-17,Approved,Char
IG_ADSL_GSKADaMMDES1.IT_AGEGR2_GSKADaMADSLMDE1,1860,ADSL,AGEGR2,Pooled Age Group 2,text,200,,,,No,CL_AGEGR2C_S4040020VD1,,,,,MT_AGEGR2_GSKADaMADSLMDE1,,,,,,Permissible,2025-09-17,Approved,Char
IG_ADSL_GSKADaMMDES1.IT_TR01SDTF_GSKADaMADSLMDE1,680,ADSL,TR01SDTF,Date 1st Exposure Period 01 Imput. Flag,text,1,,,,No,CL_DATEFL_S4040026VD1,,,,,MT_TR01SDTF_GSKADaMADSLMDE1,,,,,,,2025-09-17,Approved,Char
IG_ADSL_GSKADaMMDES1.IT_TR01EDTF_GSKADaMADSLMDE1,730,ADSL,TR01EDTF,Date Last Exposure Period 01 Imput. Flag,text,1,,,,No,CL_DATEFL_S4040026VD1,,,,,MT_TR01EDTF_GSKADaMADSLMDE1,,,,,,,2025-09-17,Approved,Char
IG_ADSL_GSKADaMMDES1.IT_AP01SDTF_GSKADaMADSLMDE1,780,ADSL,AP01SDTF,Period 01 Start Date Imput. Flag,text,1,,,,No,CL_DATEFL_S4040026VD1,,,,,MT_AP01SDTF_GSKADaMADSLMDE1,,,,,,,2025-09-17,Approved,Char
IG_ADSL_GSKADaMMDES1.IT_AP01EDTF_GSKADaMADSLMDE1,830,ADSL,AP01EDTF,Period 01 End Date Imput. Flag,text,1,,,,No,CL_DATEFL_S4040026VD1,,,,,MT_AP01EDTF_GSKADaMADSLMDE1,,,,,,,2025-09-17,Approved,Char
IG_ADSL_GSKADaMMDES1.IT_TRTSDTF_GSKADaMADSLMDE1,960,ADSL,TRTSDTF,Date of First Exposure Imput. Flag,text,1,,,,No,CL_DATEFL_S4040026VD1,,,,,MT_TRTSDTF_GSKADaMADSLMDE1,,,,,,,2025-09-17,Approved,Char
IG_ADSL_GSKADaMMDES1.IT_TRTEDTF_GSKADaMADSLMDE1,1010,ADSL,TRTEDTF,Date of Last Exposure Imput. Flag,text,1,,,,No,CL_DATEFL_S4040026VD1,,,,,MT_TRTEDTF_GSKADaMADSLMDE1,,,,,,,2025-09-17,Approved,Char
IG_ADSL_GSKADaMMDES1.IT_BRTHDTF_GSKADaMADSLMDE1,1790,ADSL,BRTHDTF,Date of Birth Imputation Flag,text,1,,,,No,CL_DATEFL_S4040026VD1,,,,,MT_BRTHDTF_GSKADaMADSLMDE1,,,,,,,2025-09-17,Approved,Char
IG_ADSL_GSKADaMMDES1.IT_RFPENDTF_GSKADaMADSLMDE1,2120,ADSL,RFPENDTF,Date of End of Particip. Imput. Flag,text,1,,,,No,CL_DATEFL_S4040026VD1,,,,,MT_RFPENDTF_GSKADaMADSLMDE1,,,,,,,2025-09-17,Approved,Char
IG_ADSL_GSKADaMMDES1.IT_FASFN_GSKADaMADSLMDE1,240,ADSL,FASFN,Full Analysis Set Population Flag (N),text,8,,,,No,CL_NYN_S4040047VD1,,,,,,,,,,,,2025-09-17,Approved,Char
IG_ADSL_GSKADaMMDES1.IT_SAFFN_GSKADaMADSLMDE1,260,ADSL,SAFFN,Safety Population Flag (N),text,8,,,,No,CL_NYN_S4040047VD1,,,,,,,,,,,,2025-09-17,Approved,Char
IG_ADSL_GSKADaMMDES1.IT_ITTFN_GSKADaMADSLMDE1,280,ADSL,ITTFN,Intent-To-Treat Population Flag (N),text,8,,,,No,CL_NYN_S4040047VD1,,,,,,,,,,,,2025-09-17,Approved,Char
IG_ADSL_GSKADaMMDES1.IT_PPROTFN_GSKADaMADSLMDE1,300,ADSL,PPROTFN,Per-Protocol Population Flag (N),text,8,,,,No,CL_NYN_S4040047VD1,,,,,,,,,,,,2025-09-17,Approved,Char
IG_ADSL_GSKADaMMDES1.IT_COMPLFN_GSKADaMADSLMDE1,320,ADSL,COMPLFN,Completers Population Flag (N),text,8,,,,No,CL_NYN_S4040047VD1,,,,,,,,,,,,2025-09-17,Approved,Char
IG_ADSL_GSKADaMMDES1.IT_RANDFN_GSKADaMADSLMDE1,340,ADSL,RANDFN,Randomized Population Flag (N),text,8,,,,No,CL_NYN_S4040047VD1,,,,,,,,,,,,2025-09-17,Approved,Char
IG_ADSL_GSKADaMMDES1.IT_ENRLFN_GSKADaMADSLMDE1,360,ADSL,ENRLFN,Enrolled Population Flag (N),text,8,,,,No,CL_NYN_S4040047VD1,,,,,,,,,,,,2025-09-17,Approved,Char
IG_ADSL_GSKADaMMDES1.IT_DTHFN_GSKADaMADSLMDE1,380,ADSL,DTHFN,Subject Death Flag (N),text,8,,,,No,CL_NYN_S4040047VD1,,,,,,,,,,,,2025-09-17,Approved,Char
IG_ADSL_GSKADaMMDES1.IT_PKFN_GSKADaMADSLMDE1,400,ADSL,PKFN,PK Population Flag (N),text,8,,,,No,CL_NYN_S4040047VD1,,,,,,,,,,,,2025-09-17,Approved,Char
IG_ADSL_GSKADaMMDES1.IT_SCRNFN_GSKADaMADSLMDE1,420,ADSL,SCRNFN,Screening Population Flag (N),text,8,,,,No,CL_NYN_S4040047VD1,,,,,,,,,,,,2025-09-17,Approved,Char
IG_ADSL_GSKADaMMDES1.IT_CHNFN_GSKADaMADSLMDE1,440,ADSL,CHNFN,Chinese Population Flag (N),text,8,,,,No,CL_NYN_S4040047VD1,,,,,,,,,,,,2025-09-17,Approved,Char
IG_ADSL_GSKADaMMDES1.IT_JPNFN_GSKADaMADSLMDE1,460,ADSL,JPNFN,Japanese Population Flag (N),text,8,,,,No,CL_NYN_S4040047VD1,,,,,,,,,,,,2025-09-17,Approved,Char
IG_ADSL_GSKADaMMDES1.IT_EAFN_GSKADaMADSLMDE1,480,ADSL,EAFN,East Asian Population Flag (N),text,8,,,,No,CL_NYN_S4040047VD1,,,,,,,,,,,,2025-09-17,Approved,Char
IG_ADSL_GSKADaMMDES1.IT_DTHFL_GSKADaMADSLMDE1,370,ADSL,DTHFL,Subject Death Flag,text,1,,,,No,CL_Y_BLANK_S404004VD1,,,,,,,,,,,,2025-09-17,Approved,Char
IG_ADSL_GSKADaMMDES1.IT_STRADVFL_GSKADaMADSLMDE1,1160,ADSL,STRADVFL,Stratum Deviation Flag,text,1,,,,No,CL_Y_BLANK_S404004VD1,,,,,,,,,,,Permissible,2025-09-17,Approved,Char
IG_ADSL_GSKADaMMDES1.IT_TRTDVFL_GSKADaMADSLMDE1,1180,ADSL,TRTDVFL,Treatment Deviation Flag,text,1,,,,No,CL_Y_BLANK_S404004VD1,,,,,,,,,,,Permissible,2025-09-17,Approved,Char
IG_ADSL_GSKADaMMDES1.IT_DTHWLTF_GSKADaMADSLMDE1,1240,ADSL,DTHWLTF,Death Within 30 Days of Last Treatment,text,1,,,,No,CL_Y_BLANK_S404004VD1,,,,,MT_DTHWLTF_GSKADaMADSLMDE1,,,,,,,2025-09-17,Approved,Char
IG_ADSL_GSKADaMMDES1.IT_DTHALTF_GSKADaMADSLMDE1,1260,ADSL,DTHALTF,Death After 30 Days of Last Treatment,text,1,,,,No,CL_Y_BLANK_S404004VD1,,,,,MT_DTHALTF_GSKADaMADSLMDE1,,,,,,,2025-09-17,Approved,Char
IG_ADSL_GSKADaMMDES1.IT_DTHWFTF_GSKADaMADSLMDE1,1280,ADSL,DTHWFTF,Death Within 30 Days of First Treatment,text,1,,,,No,CL_Y_BLANK_S404004VD1,,,,,MT_DTHWFTF_GSKADaMADSLMDE1,,,,,,,2025-09-17,Approved,Char
IG_ADSL_GSKADaMMDES1.IT_ARACEN_GSKADaMADSLMDE1,1140,ADSL,ARACEN,Analysis Race (N),text,8,,,,No,CL_ARACEN_S404006VD1,,,,,,,,,,,Permissible,2025-09-17,Approved,Char
IG_ADSL_GSKADaMMDES1.IT_SEXN_GSKADaMADSLMDE1,1880,ADSL,SEXN,Sex (N),text,8,,,,No,CL_SEXN_S404007VD1,,,,,,,,,,,Permissible,2025-09-17,Approved,Char
IG_ADSL_GSKADaMMDES1.IT_AGEGR1_GSKADaMADSLMDE1,130,ADSL,AGEGR1,Pooled Age Group 1,text,200,,,,No,CL_AGEGR1C_S4040018VD1,,,,,,,,,,,Permissible,2025-09-17,Approved,Char
IG_ADSL_GSKADaMMDES1.IT_TR01STMF_GSKADaMADSLMDE1,690,ADSL,TR01STMF,Time 1st Exposure Period 01 Imput. Flag,text,1,,,,No,CL_TIMEFL_S4040048VD1,,,,,MT_TR01STMF_GSKADaMADSLMDE1,,,,,,,2025-09-17,Approved,Char
IG_ADSL_GSKADaMMDES1.IT_TR01ETMF_GSKADaMADSLMDE1,740,ADSL,TR01ETMF,Time Last Exposure Period 01 Imput. Flag,text,1,,,,No,CL_TIMEFL_S4040048VD1,,,,,MT_TR01ETMF_GSKADaMADSLMDE1,,,,,,,2025-09-17,Approved,Char
IG_ADSL_GSKADaMMDES1.IT_AP01STMF_GSKADaMADSLMDE1,790,ADSL,AP01STMF,Period 01 Start Time Imput. Flag,text,1,,,,No,CL_TIMEFL_S4040048VD1,,,,,MT_AP01STMF_GSKADaMADSLMDE1,,,,,,,2025-09-17,Approved,Char
IG_ADSL_GSKADaMMDES1.IT_AP01ETMF_GSKADaMADSLMDE1,840,ADSL,AP01ETMF,Period 01 End Time Imput. Flag,text,1,,,,No,CL_TIMEFL_S4040048VD1,,,,,MT_AP01ETMF_GSKADaMADSLMDE1,,,,,,,2025-09-17,Approved,Char
IG_ADSL_GSKADaMMDES1.IT_TRTSTMF_GSKADaMADSLMDE1,970,ADSL,TRTSTMF,Time of First Exposure Imput. Flag,text,1,,,,No,CL_TIMEFL_S4040048VD1,,,,,MT_TRTSTMF_GSKADaMADSLMDE1,,,,,,,2025-09-17,Approved,Char
IG_ADSL_GSKADaMMDES1.IT_TRTETMF_GSKADaMADSLMDE1,1020,ADSL,TRTETMF,Time of Last Exposure Imput. Flag,text,1,,,,No,CL_TIMEFL_S4040048VD1,,,,,MT_TRTETMF_GSKADaMADSLMDE1,,,,,,,2025-09-17,Approved,Char
IG_ADLB_GSKADaMMDES1.IT_STUDYID_GSKADaMADLBMDE1,10,ADLB,STUDYID,Study Identifier,text,9,,,2,Yes,,,,,,,,,,,,Required,2025-09-17,Approved,Char
IG_ADLB_GSKADaMMDES1.IT_USUBJID_GSKADaMADLBMDE1,20,ADLB,USUBJID,Unique Subject Identifier,text,30,,,1,Yes,,,,,,,,,,,,Required,2025-09-17,Approved,Char
IG_ADLB_GSKADaMMDES1.IT_SUBJID_GSKADaMADLBMDE1,25,ADLB,SUBJID,Subject Identifier for the Study,text,20,,,,Yes,,,,,,,,,,,,Required,2025-09-17,Approved,Char
IG_ADLB_GSKADaMMDES1.IT_SITEID_GSKADaMADLBMDE1,30,ADLB,SITEID,Study Site Identifier,text,10,,,,Yes,,,,,,,,,,,,Required,2025-09-17,Approved,Char
IG_ADLB_GSKADaMMDES1.IT_TRTP_GSKADaMADLBMDE1,120,ADLB,TRTP,Planned Treatment,text,100,,,,No,,,,,,MT_TRTP_GSKADaMADLBMDE1,,,,,,,2025-09-17,Approved,Char
IG_ADLB_GSKADaMMDES1.IT_TRTA_GSKADaMADLBMDE1,140,ADLB,TRTA,Actual Treatment,text,100,,,,No,,,,,,MT_TRTA_GSKADaMADLBMDE1,,,,,,,2025-09-17,Approved,Char
IG_ADLB_GSKADaMMDES1.IT_TRT01A_GSKADaMADLBMDE1,160,ADLB,TRT01A,Actual Treatment for Period 01,text,100,,,,No,,,,,,,,,,,,,2025-09-17,Approved,Char
IG_ADLB_GSKADaMMDES1.IT_TRT01P_GSKADaMADLBMDE1,180,ADLB,TRT01P,Planned Treatment for Period 01,text,100,,,,Yes,,,,,,,,,,,,Required,2025-09-17,Approved,Char
IG_ADLB_GSKADaMMDES1.IT_TRTSEQP_GSKADaMADLBMDE1,200,ADLB,TRTSEQP,Planned Sequence of Treatments,text,200,,,,No,,,,,,,,,,,,,2025-09-17,Approved,Char
IG_ADLB_GSKADaMMDES1.IT_TRTSEQA_GSKADaMADLBMDE1,220,ADLB,TRTSEQA,Actual Sequence of Treatments,text,200,,,,No,,,,,,,,,,,,,2025-09-17,Approved,Char
IG_ADLB_GSKADaMMDES1.IT_APERIODC_GSKADaMADLBMDE1,250,ADLB,APERIODC,Period (C),text,100,,,,No,,,,,,,,,,,,Permissible,2025-09-17,Approved,Char
IG_ADLB_GSKADaMMDES1.IT_APHASE_GSKADaMADLBMDE1,260,ADLB,APHASE,Phase,text,100,,,,No,,,,,,MT_APHASE_GSKADaMADLBMDE1,,,,,,Permissible,2025-09-17,Approved,Char
IG_ADLB_GSKADaMMDES1.IT_VISIT_GSKADaMADLBMDE1,280,ADLB,VISIT,Visit Name,text,200,,,,No,,,,,,,,,,,,Permissible,2025-09-17,Approved,Char
IG_ADLB_GSKADaMMDES1.IT_AVISIT_GSKADaMADLBMDE1,300,ADLB,AVISIT,Analysis Visit,text,200,,,4,No,,,,,,,,,,,,,2025-09-17,Approved,Char
IG_ADLB_GSKADaMMDES1.IT_ATPTREF_GSKADaMADLBMDE1,320,ADLB,ATPTREF,Analysis Timepoint Reference,text,40,,,,No,,,,,,,,,,,,Permissible,2025-09-17,Approved,Char
IG_ADLB_GSKADaMMDES1.IT_ATPT_GSKADaMADLBMDE1,340,ADLB,ATPT,Analysis Timepoint,text,40,,,5,No,,,,,,,,,,,,,2025-09-17,Approved,Char
IG_ADLB_GSKADaMMDES1.IT_PARCAT1_GSKADaMADLBMDE1,400,ADLB,PARCAT1,Parameter Category 1,text,100,,,,No,,,,,,,,,,,,Permissible,2025-09-17,Approved,Char
IG_ADLB_GSKADaMMDES1.IT_PARAMLBL_GSKADaMADLBMDE1,450,ADLB,PARAMLBL,Parameter Label,text,200,,,,No,,,,,,,,,,,,Permissible,2025-09-17,Approved,Char
IG_ADLB_GSKADaMMDES1.IT_AVALC_GSKADaMADLBMDE1,460,ADLB,AVALC,Analysis Value (C),text,200,,,,No,,,,,,,,,,,,,2025-09-17,Approved,Char
IG_ADLB_GSKADaMMDES1.IT_AVALU_GSKADaMADLBMDE1,480,ADLB,AVALU,Analysis Value Unit,text,25,,,,No,,,,,,,,,,,,Permissible,2025-09-17,Approved,Char
IG_ADLB_GSKADaMMDES1.IT_BASEC_GSKADaMADLBMDE1,540,ADLB,BASEC,Baseline Value (C),text,200,,,,No,,,,,,,,,,,,Permissible,2025-09-17,Approved,Char
IG_ADLB_GSKADaMMDES1.IT_ANRIND_GSKADaMADLBMDE1,600,ADLB,ANRIND,Analysis Reference Range Indicator,text,6,,,,No,,,,,,,,,,,,Permissible,2025-09-17,Approved,Char
IG_ADLB_GSKADaMMDES1.IT_BNRIND_GSKADaMADLBMDE1,610,ADLB,BNRIND,Baseline Reference Range Indicator,text,6,,,,No,,,,,,,,,,,,Permissible,2025-09-17,Approved,Char
IG_ADLB_GSKADaMMDES1.IT_SRCDOM_GSKADaMADLBMDE1,750,ADLB,SRCDOM,Source Data,text,8,,,,No,,,,,,,,,,,,Permissible,2025-09-17,Approved,Char
IG_ADLB_GSKADaMMDES1.IT_SRCVAR_GSKADaMADLBMDE1,760,ADLB,SRCVAR,Source Variable,text,8,,,,No,,,,,,,,,,,,Permissible,2025-09-17,Approved,Char
IG_ADLB_GSKADaMMDES1.IT_LBDTC_GSKADaMADLBMDE1,800,ADLB,LBDTC,Date/Time of Specimen Collection,text,32,,,,No,,,,,,,,,,,,Permissible,2025-09-17,Approved,Char
IG_ADLB_GSKADaMMDES1.IT_ASPERC_GSKADaMADLBMDE1,820,ADLB,ASPERC,Subperiod within Period (C),text,10,,,,No,,,,,,,,,,,,Permissible,2025-09-17,Approved,Char
IG_ADLB_GSKADaMMDES1.IT_APBLFL_GSKADaMADLBMDE1,1060,ADLB,APBLFL,Post Baseline Flag,text,100,,,,No,,,,,,,,,,,,,2025-09-17,Approved,Char
IG_ADLB_GSKADaMMDES1.IT_ATOXGRL_GSKADaMADLBMDE1,1080,ADLB,ATOXGRL,Analysis Toxicity Grade Low,text,100,,,,No,,,,,,,,,,,,,2025-09-17,Approved,Char
IG_ADLB_GSKADaMMDES1.IT_ATOXGRH_GSKADaMADLBMDE1,1100,ADLB,ATOXGRH,Analysis Toxicity Grade High,text,100,,,,No,,,,,,,,,,,,,2025-09-17,Approved,Char
IG_ADLB_GSKADaMMDES1.IT_BTOXGRL_GSKADaMADLBMDE1,1120,ADLB,BTOXGRL,Baseline Toxicity Grade Low,text,100,,,,No,,,,,,,,,,,,,2025-09-17,Approved,Char
IG_ADLB_GSKADaMMDES1.IT_BTOXGRH_GSKADaMADLBMDE1,1140,ADLB,BTOXGRH,Baseline Toxicity Grade High,text,100,,,,No,,,,,,,,,,,,,2025-09-17,Approved,Char
IG_ADLB_GSKADaMMDES1.IT_ATOXDSCL_GSKADaMADLBMDE1,1160,ADLB,ATOXDSCL,Analysis Toxicity Description Low,text,100,,,,No,,,,,,,,,,,,,2025-09-17,Approved,Char
IG_ADLB_GSKADaMMDES1.IT_ATOXDSCH_GSKADaMADLBMDE1,1170,ADLB,ATOXDSCH,Analysis Toxicity Description High,text,100,,,,No,,,,,,,,,,,,,2025-09-17,Approved,Char
IG_ADLB_GSKADaMMDES1.IT_WEIGHTBL_GSKADaMADLBMDE1,35,ADLB,WEIGHTBL,Weight (kg) at Baseline,integer,8,,,,No,,,,,,,,,,,,Permissible,2025-09-17,Approved,Num
IG_ADLB_GSKADaMMDES1.IT_AVAL_GSKADaMADLBMDE1,470,ADLB,AVAL,Analysis Value,integer,8,,,,No,,,,,,,,,,,,,2025-09-17,Approved,Num
IG_ADLB_GSKADaMMDES1.IT_ANRLO_GSKADaMADLBMDE1,560,ADLB,ANRLO,Analysis Normal Range Lower Limit,integer,8,,,,No,,,,,,,,,,,,Permissible,2025-09-17,Approved,Num
IG_ADLB_GSKADaMMDES1.IT_ANRHI_GSKADaMADLBMDE1,570,ADLB,ANRHI,Analysis Normal Range Upper Limit,integer,8,,,,No,,,,,,,,,,,,Permissible,2025-09-17,Approved,Num
IG_ADLB_GSKADaMMDES1.IT_R2ANRLO_GSKADaMADLBMDE1,580,ADLB,R2ANRLO,Ratio to Analysis Normal Range Lower Lim,integer,8,,,,No,,,,,,MT_R2ANRLO_GSKADaMADLBMDE1,,,,,,Permissible,2025-09-17,Approved,Num
IG_ADLB_GSKADaMMDES1.IT_R2ANRHI_GSKADaMADLBMDE1,590,ADLB,R2ANRHI,Ratio to Analysis Normal Range Upper Lim,integer,8,,,,No,,,,,,MT_R2ANRHI_GSKADaMADLBMDE1,,,,,,Permissible,2025-09-17,Approved,Num
IG_ADLB_GSKADaMMDES1.IT_A2LO_GSKADaMADLBMDE1,690,ADLB,A2LO,Analysis Range 2 Lower Limit,integer,8,,,,No,,,,,,,,,,,,Permissible,2025-09-17,Approved,Num
IG_ADLB_GSKADaMMDES1.IT_A2HI_GSKADaMADLBMDE1,700,ADLB,A2HI,Analysis Range 2 Upper Limit,integer,8,,,,No,,,,,,,,,,,,Permissible,2025-09-17,Approved,Num
IG_ADLB_GSKADaMMDES1.IT_A91LO_GSKADaMADLBMDE1,860,ADLB,A91LO,Analysis Range 91 Lower Limit,integer,8,,,,No,,,,,,,,,,,,Permissible,2025-09-17,Approved,Num
IG_ADLB_GSKADaMMDES1.IT_A91HI_GSKADaMADLBMDE1,870,ADLB,A91HI,Analysis Range 91 Upper Limit,integer,8,,,,No,,,,,,,,,,,,Permissible,2025-09-17,Approved,Num
IG_ADLB_GSKADaMMDES1.IT_A92LO_GSKADaMADLBMDE1,880,ADLB,A92LO,Analysis Range 92 Lower Limit,integer,8,,,,No,,,,,,,,,,,,Permissible,2025-09-17,Approved,Num
IG_ADLB_GSKADaMMDES1.IT_A92HI_GSKADaMADLBMDE1,890,ADLB,A92HI,Analysis Range 92 Upper Limit,integer,8,,,,No,,,,,,,,,,,,Permissible,2025-09-17,Approved,Num
IG_ADLB_GSKADaMMDES1.IT_A93LO_GSKADaMADLBMDE1,900,ADLB,A93LO,Analysis Range 93 Lower Limit,integer,8,,,,No,,,,,,,,,,,,Permissible,2025-09-17,Approved,Num
IG_ADLB_GSKADaMMDES1.IT_A93HI_GSKADaMADLBMDE1,910,ADLB,A93HI,Analysis Range 93 Upper Limit,integer,8,,,,No,,,,,,,,,,,,Permissible,2025-09-17,Approved,Num
IG_ADLB_GSKADaMMDES1.IT_A94LO_GSKADaMADLBMDE1,920,ADLB,A94LO,Analysis Range 94 Lower Limit,integer,8,,,,No,,,,,,,,,,,,Permissible,2025-09-17,Approved,Num
IG_ADLB_GSKADaMMDES1.IT_A94HI_GSKADaMADLBMDE1,930,ADLB,A94HI,Analysis Range 94 Upper Limit,integer,8,,,,No,,,,,,,,,,,,Permissible,2025-09-17,Approved,Num
IG_ADLB_GSKADaMMDES1.IT_AGE_GSKADaMADLBMDE1,40,ADLB,AGE,Age,integer,8,,,,No,,,,,,,,,,,,,2025-09-17,Approved,Num
IG_ADLB_GSKADaMMDES1.IT_TRTPN_GSKADaMADLBMDE1,130,ADLB,TRTPN,Planned Treatment (N),integer,8,,,,No,,,,,,,,,,,,,2025-09-17,Approved,Num
IG_ADLB_GSKADaMMDES1.IT_TRTAN_GSKADaMADLBMDE1,150,ADLB,TRTAN,Actual Treatment (N),integer,8,,,,No,,,,,,,,,,,,,2025-09-17,Approved,Num
IG_ADLB_GSKADaMMDES1.IT_TRT01AN_GSKADaMADLBMDE1,170,ADLB,TRT01AN,Actual Treatment for Period 01 (N),integer,8,,,,No,,,,,,,,,,,,,2025-09-17,Approved,Num
IG_ADLB_GSKADaMMDES1.IT_TRT01PN_GSKADaMADLBMDE1,190,ADLB,TRT01PN,Planned Treatment for Period 01 (N),integer,8,,,,No,,,,,,,,,,,,,2025-09-17,Approved,Num
IG_ADLB_GSKADaMMDES1.IT_TRTSEQPN_GSKADaMADLBMDE1,210,ADLB,TRTSEQPN,Planned Sequence of Treatments (N),integer,8,,,,No,,,,,,,,,,,,,2025-09-17,Approved,Num
IG_ADLB_GSKADaMMDES1.IT_TRTSEQAN_GSKADaMADLBMDE1,230,ADLB,TRTSEQAN,Actual Sequence of Treatments (N),integer,8,,,,No,,,,,,,,,,,,,2025-09-17,Approved,Num
IG_ADLB_GSKADaMMDES1.IT_APERIOD_GSKADaMADLBMDE1,240,ADLB,APERIOD,Period,integer,8,,,,No,,,,,,MT_APERIOD_GSKADaMADLBMDE1,,,,,,Permissible,2025-09-17,Approved,Num
IG_ADLB_GSKADaMMDES1.IT_APHASEN_GSKADaMADLBMDE1,270,ADLB,APHASEN,Phase (N),integer,8,,,,No,,,,,,,,,,,,Permissible,2025-09-17,Approved,Num
IG_ADLB_GSKADaMMDES1.IT_VISITNUM_GSKADaMADLBMDE1,290,ADLB,VISITNUM,Visit Number,integer,8,,,,No,,,,,,,,,,,,Permissible,2025-09-17,Approved,Num
IG_ADLB_GSKADaMMDES1.IT_AVISITN_GSKADaMADLBMDE1,310,ADLB,AVISITN,Analysis Visit (N),integer,8,,,,No,,,,,,,,,,,,Permissible,2025-09-17,Approved,Num
IG_ADLB_GSKADaMMDES1.IT_ATPTN_GSKADaMADLBMDE1,330,ADLB,ATPTN,Analysis Timepoint (N),integer,8,,,,No,,,,,,,,,,,,Permissible,2025-09-17,Approved,Num
IG_ADLB_GSKADaMMDES1.IT_APERADY_GSKADaMADLBMDE1,350,ADLB,APERADY,Analysis Relative Day in Period,integer,8,,,,No,,,,,,MT_APERADY_GSKADaMADLBMDE1,,,,,,Permissible,2025-09-17,Approved,Num
IG_ADLB_GSKADaMMDES1.IT_ADT_GSKADaMADLBMDE1,360,ADLB,ADT,Analysis Date,integer,8,,,6,No,,,,,,MT_ADT_GSKADaMADLBMDE1,,,,,,Permissible,2025-09-17,Approved,Num
IG_ADLB_GSKADaMMDES1.IT_ATM_GSKADaMADLBMDE1,370,ADLB,ATM,Analysis Time,integer,8,,,,No,,,,,,MT_ATM_GSKADaMADLBMDE1,,,,,,Permissible,2025-09-17,Approved,Num
IG_ADLB_GSKADaMMDES1.IT_ADTM_GSKADaMADLBMDE1,380,ADLB,ADTM,Analysis Datetime,integer,8,,,,No,,,,,,MT_ADTM_GSKADaMADLBMDE1,,,,,,Permissible,2025-09-17,Approved,Num
IG_ADLB_GSKADaMMDES1.IT_ADY_GSKADaMADLBMDE1,390,ADLB,ADY,Analysis Relative Day,integer,8,,,,No,,,,,,MT_ADY_GSKADaMADLBMDE1,,,,,,Permissible,2025-09-17,Approved,Num
IG_ADLB_GSKADaMMDES1.IT_PARCAT1N_GSKADaMADLBMDE1,410,ADLB,PARCAT1N,Parameter Category 1 (N),integer,8,,,,No,,,,,,,,,,,,Permissible,2025-09-17,Approved,Num
IG_ADLB_GSKADaMMDES1.IT_BASE_GSKADaMADLBMDE1,530,ADLB,BASE,Baseline Value,integer,8,,,,No,,,,,,,,,,,,Permissible,2025-09-17,Approved,Num
IG_ADLB_GSKADaMMDES1.IT_CHG_GSKADaMADLBMDE1,550,ADLB,CHG,Change from Baseline,integer,8,,,,No,,,,,,MT_CHG_GSKADaMADLBMDE1,,,,,,Permissible,2025-09-17,Approved,Num
IG_ADLB_GSKADaMMDES1.IT_ANRINDN_GSKADaMADLBMDE1,620,ADLB,ANRINDN,Analysis Reference Range Indicator (N),integer,8,,,,No,,,,,,,,,,,,Permissible,2025-09-17,Approved,Num
IG_ADLB_GSKADaMMDES1.IT_BNRINDN_GSKADaMADLBMDE1,630,ADLB,BNRINDN,Baseline Reference Range Indicator (N),integer,8,,,,No,,,,,,,,,,,,Permissible,2025-09-17,Approved,Num
IG_ADLB_GSKADaMMDES1.IT_A1LO_GSKADaMADLBMDE1,640,ADLB,A1LO,Analysis Range 1 Lower Limit,integer,8,,,,No,,,,,,,,,,,,Permissible,2025-09-17,Approved,Num
IG_ADLB_GSKADaMMDES1.IT_A1HI_GSKADaMADLBMDE1,650,ADLB,A1HI,Analysis Range 1 Upper Limit,integer,8,,,,No,,,,,,,,,,,,Permissible,2025-09-17,Approved,Num
IG_ADLB_GSKADaMMDES1.IT_PCHG_GSKADaMADLBMDE1,740,ADLB,PCHG,Percent Change from Baseline,integer,8,,,,No,,,,,,MT_PCHG_GSKADaMADLBMDE1,,,,,,Permissible,2025-09-17,Approved,Num
IG_ADLB_GSKADaMMDES1.IT_SRCSEQ_GSKADaMADLBMDE1,770,ADLB,SRCSEQ,Source Sequence Number,integer,8,,,,No,,,,,,,,,,,,Permissible,2025-09-17,Approved,Num
IG_ADLB_GSKADaMMDES1.IT_LBSEQ_GSKADaMADLBMDE1,780,ADLB,LBSEQ,Sequence Number,integer,8,,,,No,,,,,,,,,,,,Permissible,2025-09-17,Approved,Num
IG_ADLB_GSKADaMMDES1.IT_ASEQ_GSKADaMADLBMDE1,790,ADLB,ASEQ,Analysis Sequence Number,integer,8,,,,No,,,,,,MT_ASEQ_GSKADaMADLBMDE1,,,,,,Permissible,2025-09-17,Approved,Num
IG_ADLB_GSKADaMMDES1.IT_ASPER_GSKADaMADLBMDE1,810,ADLB,ASPER,Subperiod within Period,integer,8,,,,No,,,,,,MT_ASPER_GSKADaMADLBMDE1,,,,,,Permissible,2025-09-17,Approved,Num
IG_ADLB_GSKADaMMDES1.IT_APBLFLN_GSKADaMADLBMDE1,1070,ADLB,APBLFLN,Post Baseline Flag (N),integer,8,,,,No,,,,,,,,,,,,Permissible,2025-09-17,Approved,Num
IG_ADLB_GSKADaMMDES1.IT_ATOXGRLN_GSKADaMADLBMDE1,1090,ADLB,ATOXGRLN,Analysis Toxicity Grade Low (N),integer,8,,,,No,,,,,,,,,,,,Permissible,2025-09-17,Approved,Num
IG_ADLB_GSKADaMMDES1.IT_ATOXGRHN_GSKADaMADLBMDE1,1110,ADLB,ATOXGRHN,Analysis Toxicity Grade High (N),integer,8,,,,No,,,,,,,,,,,,Permissible,2025-09-17,Approved,Num
IG_ADLB_GSKADaMMDES1.IT_BTOXGRLN_GSKADaMADLBMDE1,1130,ADLB,BTOXGRLN,Baseline Toxicity Grade Low (N),integer,8,,,,No,,,,,,,,,,,,Permissible,2025-09-17,Approved,Num
IG_ADLB_GSKADaMMDES1.IT_BTOXGRHN_GSKADaMADLBMDE1,1150,ADLB,BTOXGRHN,Baseline Toxicity Grade High (N),integer,8,,,,No,,,,,,,,,,,,Permissible,2025-09-17,Approved,Num
IG_ADLB_GSKADaMMDES1.IT_ENRLFL_GSKADaMADLBMDE1,75,ADLB,ENRLFL,Enrolled Population Flag,text,1,,,,No,CL_NY_GSKC66742VD1,,,,,,,,,,,,2025-09-17,Approved,Char
IG_ADLB_GSKADaMMDES1.IT_FASFL_GSKADaMADLBMDE1,80,ADLB,FASFL,Full Analysis Set Population Flag,text,1,,,,No,CL_NY_GSKC66742VD1,,,,,,,,,,,,2025-09-17,Approved,Char
IG_ADLB_GSKADaMMDES1.IT_ITTFL_GSKADaMADLBMDE1,90,ADLB,ITTFL,Intent-To-Treat Population Flag,text,1,,,,No,CL_NY_GSKC66742VD1,,,,,,,,,,,,2025-09-17,Approved,Char
IG_ADLB_GSKADaMMDES1.IT_SAFFL_GSKADaMADLBMDE1,100,ADLB,SAFFL,Safety Population Flag,text,1,,,,No,CL_NY_GSKC66742VD1,,,,,,,,,,,,2025-09-17,Approved,Char
IG_ADLB_GSKADaMMDES1.IT_PPROTFL_GSKADaMADLBMDE1,110,ADLB,PPROTFL,Per-Protocol Population Flag,text,1,,,,No,CL_NY_GSKC66742VD1,,,,,,,,,,,,2025-09-17,Approved,Char
IG_ADLB_GSKADaMMDES1.IT_SEX_GSKADaMADLBMDE1,50,ADLB,SEX,Sex,text,1,,,,No,CL_SEX_GSKC66731VD1,,,,,,,,,,,,2025-09-17,Approved,Char
IG_ADLB_GSKADaMMDES1.IT_ARACE_GSKADaMADLBMDE1,60,ADLB,ARACE,Analysis Race,text,100,,,,No,CL_ARACE_S404005VD1,,,,,,,,,,,,2025-09-17,Approved,Char
IG_ADLB_GSKADaMMDES1.IT_ACOUNTRY_GSKADaMADLBMDE1,70,ADLB,ACOUNTRY,Analysis Country,text,100,,,,No,CL_ACOUNTRY_S404008VD1,,,,,,,,,,,Permissible,2025-09-17,Approved,Char
IG_ADLB_GSKADaMMDES1.IT_DTYPE_GSKADaMADLBMDE1,490,ADLB,DTYPE,Derivation Type,text,20,,,,No,CL_DTYPE_S4040032VD1,,,,,,,,,,,,2025-09-17,Approved,Char
IG_ADLB_GSKADaMMDES1.IT_CHGCAT1_GSKADaMADLBMDE1,710,ADLB,CHGCAT1,Change from Baseline Category 1,text,8,,,,No,CL_CHGCAT1C_S4040033VD1,,,,,,,,,,,Permissible,2025-09-17,Approved,Char
IG_ADLB_GSKADaMMDES1.IT_SHIFT1_GSKADaMADLBMDE1,840,ADLB,SHIFT1,Shift 1,text,100,,,,No,CL_SHIFT1C_S4040035VD1,,,,,MT_SHIFT1_GSKADaMADLBMDE1,,,,,,Permissible,2025-09-17,Approved,Char
IG_ADLB_GSKADaMMDES1.IT_PARAM_GSKADaMADLBMDE1,420,ADLB,PARAM,Parameter,text,200,,,,Yes,CL_ADLB_PARAMCD_S4040030VD1,,,,,,,,,,,Required,2025-09-17,Approved,Char
IG_ADLB_GSKADaMMDES1.IT_PARAMCD_GSKADaMADLBMDE1,440,ADLB,PARAMCD,Parameter Code,text,8,,,3,Yes,CL_ADLB_PARAMCD_S4040030VD1,,,,,,,,,,,Required,2025-09-17,Approved,Char
IG_ADLB_GSKADaMMDES1.IT_PARAMN_GSKADaMADLBMDE1,430,ADLB,PARAMN,Parameter (N),text,8,,,,No,CL_ADLB_PARAMN_S4040031VD1,,,,,,,,,,,Permissible,2025-09-17,Approved,Char
IG_ADLB_GSKADaMMDES1.IT_SHIFT2_GSKADaMADLBMDE1,940,ADLB,SHIFT2,Shift 2,text,100,,,,No,CL_TOXSHIFT1C_S4040037VD1,,,,,MT_SHIFT2_GSKADaMADLBMDE1,,,,,,,2025-09-17,Approved,Char
IG_ADLB_GSKADaMMDES1.IT_SHIFT4_GSKADaMADLBMDE1,980,ADLB,SHIFT4,Shift 4,text,100,,,,No,CL_TOXSHIFT1C_S4040037VD1,,,,,MT_SHIFT4_GSKADaMADLBMDE1,,,,,,,2025-09-17,Approved,Char
IG_ADLB_GSKADaMMDES1.IT_SHIFT5_GSKADaMADLBMDE1,1000,ADLB,SHIFT5,Shift 5,text,100,,,,No,CL_TOXSHIFT1C_S4040037VD1,,,,,MT_SHIFT5_GSKADaMADLBMDE1,,,,,,,2025-09-17,Approved,Char
IG_ADLB_GSKADaMMDES1.IT_SHIFT2N_GSKADaMADLBMDE1,950,ADLB,SHIFT2N,Shift 2 (N),text,8,,,,No,CL_TOXSHIFT1N_S4040038VD1,,,,,,,,,,,,2025-09-17,Approved,Char
IG_ADLB_GSKADaMMDES1.IT_SHIFT4N_GSKADaMADLBMDE1,990,ADLB,SHIFT4N,Shift 4 (N),text,8,,,,No,CL_TOXSHIFT1N_S4040038VD1,,,,,,,,,,,,2025-09-17,Approved,Char
IG_ADLB_GSKADaMMDES1.IT_SHIFT5N_GSKADaMADLBMDE1,1010,ADLB,SHIFT5N,Shift 5 (N),text,8,,,,No,CL_TOXSHIFT1N_S4040038VD1,,,,,,,,,,,,2025-09-17,Approved,Char
IG_ADLB_GSKADaMMDES1.IT_SHIFT3_GSKADaMADLBMDE1,960,ADLB,SHIFT3,Shift 3,text,100,,,,No,CL_ADLB_SHIFT1C_S4040039VD1,,,,,MT_SHIFT3_GSKADaMADLBMDE1,,,,,,,2025-09-17,Approved,Char
IG_ADLB_GSKADaMMDES1.IT_B2IND_GSKADaMADLBMDE1,730,ADLB,B2IND,Baseline Analysis Range 2 Indicator,text,40,,,,No,CL_B2IND_S4040034VD1,,,,,,,,,,,Permissible,2025-09-17,Approved,Char
IG_ADLB_GSKADaMMDES1.IT_SHIFT1N_GSKADaMADLBMDE1,850,ADLB,SHIFT1N,Shift 1 (N),text,8,,,,No,CL_SHIFT1N_S4040036VD1,,,,,,,,,,,Permissible,2025-09-17,Approved,Char
IG_ADLB_GSKADaMMDES1.IT_SHIFT3N_GSKADaMADLBMDE1,970,ADLB,SHIFT3N,Shift 3 (N),text,8,,,,No,CL_ADLB_SHIFT1N_S4040040VD1,,,,,,,,,,,,2025-09-17,Approved,Char
IG_ADLB_GSKADaMMDES1.IT_BTOXGRN_GSKADaMADLBMDE1,1030,ADLB,BTOXGRN,Baseline Toxicity Grade (N),text,8,,,,No,CL_TOXGRN_S4040042VD1,,,,,,,,,,,Permissible,2025-09-17,Approved,Char
IG_ADLB_GSKADaMMDES1.IT_ATOXGRN_GSKADaMADLBMDE1,1050,ADLB,ATOXGRN,Analysis Toxicity Grade (N),text,8,,,,No,CL_TOXGRN_S4040042VD1,,,,,MT_ATOXGRN_GSKADaMADLBMDE1,,,,,,Permissible,2025-09-17,Approved,Char
IG_ADLB_GSKADaMMDES1.IT_A1IND_GSKADaMADLBMDE1,670,ADLB,A1IND,Analysis Range 1 Full Text,text,20,,,,No,CL_A1IND_S404001VD1,,,,,,,,,,,Permissible,2025-09-17,Approved,Char
IG_ADLB_GSKADaMMDES1.IT_B1IND_GSKADaMADLBMDE1,680,ADLB,B1IND,Analysis Range 1 Indicator,text,20,,,,No,CL_A1IND_S404001VD1,,,,,,,,,,,Permissible,2025-09-17,Approved,Char
IG_ADLB_GSKADaMMDES1.IT_ANL01FL_GSKADaMADLBMDE1,500,ADLB,ANL01FL,Analysis Flag 01,text,1,,,,No,CL_Y_BLANK_S404004VD1,,,,,,,,,,,Permissible,2025-09-17,Approved,Char
IG_ADLB_GSKADaMMDES1.IT_ANL02FL_GSKADaMADLBMDE1,510,ADLB,ANL02FL,Analysis Flag 02,text,1,,,,No,CL_Y_BLANK_S404004VD1,,,,,,,,,,,Permissible,2025-09-17,Approved,Char
IG_ADLB_GSKADaMMDES1.IT_ABLFL_GSKADaMADLBMDE1,520,ADLB,ABLFL,Baseline Record Flag,text,1,,,,No,CL_Y_BLANK_S404004VD1,,,,,,,,,,,,2025-09-17,Approved,Char
IG_ADLB_GSKADaMMDES1.IT_EVLLBFL_GSKADaMADLBMDE1,830,ADLB,EVLLBFL,Evaluable Lab Flag,text,1,,,,No,CL_Y_BLANK_S404004VD1,,,,,,,,,,,Permissible,2025-09-17,Approved,Char
IG_ADLB_GSKADaMMDES1.IT_ANL61FL_GSKADaMADLBMDE1,1180,ADLB,ANL61FL,Analysis Flag 61 WC AVAL Shift,text,1,,,,No,CL_Y_BLANK_S404004VD1,,,,,MT_ANL61FL_GSKADaMADLBMDE1,,,,,,,2025-09-17,Approved,Char
IG_ADLB_GSKADaMMDES1.IT_ANL62FL_GSKADaMADLBMDE1,1190,ADLB,ANL62FL,Analysis Flag 62 WC CHG or Grade Shift,text,1,,,,No,CL_Y_BLANK_S404004VD1,,,,,MT_ANL62FL_GSKADaMADLBMDE1,,,,,,,2025-09-17,Approved,Char
IG_ADLB_GSKADaMMDES1.IT_ANL63FL_GSKADaMADLBMDE1,1200,ADLB,ANL63FL,Analysis Flag 63 WC Max Grade Shift,text,1,,,,No,CL_Y_BLANK_S404004VD1,,,,,MT_ANL63FL_GSKADaMADLBMDE1,,,,,,,2025-09-17,Approved,Char
IG_ADLB_GSKADaMMDES1.IT_ANL71FL_GSKADaMADLBMDE1,1210,ADLB,ANL71FL,Analysis Flag 71 Any CHG Critical,text,1,,,,No,CL_Y_BLANK_S404004VD1,,,,,,,,,,,,2025-09-17,Approved,Char
IG_ADLB_GSKADaMMDES1.IT_ANL72FL_GSKADaMADLBMDE1,1220,ADLB,ANL72FL,Analysis Flag 72 Any AVAL Critical,text,1,,,,No,CL_Y_BLANK_S404004VD1,,,,,,,,,,,,2025-09-17,Approved,Char
IG_ADLB_GSKADaMMDES1.IT_ANL81FL_GSKADaMADLBMDE1,1230,ADLB,ANL81FL,Analysis Flag 81 Any Critical NR/PCI,text,1,,,,No,CL_Y_BLANK_S404004VD1,,,,,MT_ANL81FL_GSKADaMADLBMDE1,,,,,,,2025-09-17,Approved,Char
IG_ADLB_GSKADaMMDES1.IT_ANL70FL_GSKADaMADLBMDE1,1240,ADLB,ANL70FL,Analysis Flag 70,text,1,,,,No,CL_Y_BLANK_S404004VD1,,,,,,,,,,,Permissible,2025-09-17,Approved,Char
IG_ADLB_GSKADaMMDES1.IT_ANL73FL_GSKADaMADLBMDE1,1250,ADLB,ANL73FL,Analysis Flag 73,text,1,,,,No,CL_Y_BLANK_S404004VD1,,,,,,,,,,,Permissible,2025-09-17,Approved,Char
IG_ADLB_GSKADaMMDES1.IT_ARACEN_GSKADaMADLBMDE1,65,ADLB,ARACEN,Analysis Race (N),text,8,,,,No,CL_ARACEN_S404006VD1,,,,,,,,,,,,2025-09-17,Approved,Char
IG_ADLB_GSKADaMMDES1.IT_SEXN_GSKADaMADLBMDE1,55,ADLB,SEXN,Sex (N),text,8,,,,No,CL_SEXN_S404007VD1,,,,,,,,,,,,2025-09-17,Approved,Char
IG_ADLB_GSKADaMMDES1.IT_A1INDCD_GSKADaMADLBMDE1,660,ADLB,A1INDCD,Analysis Range 1 Code Indicator,text,2,,,,No,CL_A1INDCD_S404002VD1,,,,,MT_A1INDCD_GSKADaMADLBMDE1,,,,,,Permissible,2025-09-17,Approved,Char
IG_ADLB_GSKADaMMDES1.IT_CHGCA1CD_GSKADaMADLBMDE1,720,ADLB,CHGCA1CD,Change from Baseline Category 1 Code,text,50,,,,No,CL_CHGCA1CD_S404003VD1,,,,,MT_CHGCA1CD_GSKADaMADLBMDE1,,,,,,Permissible,2025-09-17,Approved,Char
IG_ADLB_GSKADaMMDES1.IT_BTOXGR_GSKADaMADLBMDE1,1020,ADLB,BTOXGR,Baseline Toxicity Grade,text,100,,,,No,CL_TOXGR_S4040041VD1,,,,,,,,,,,,2025-09-17,Approved,Char
IG_ADLB_GSKADaMMDES1.IT_ATOXGR_GSKADaMADLBMDE1,1040,ADLB,ATOXGR,Analysis Toxicity Grade,text,100,,,,No,CL_TOXGR_S4040041VD1,,,,,MT_ATOXGR_GSKADaMADLBMDE1,,,,,,,2025-09-17,Approved,Char
IG_ADAE_GSKADaMMDES1.IT_USUBJID_GSKADaMADAEMDE1,10,ADAE,USUBJID,Unique Subject Identifier,text,30,,,1,Yes,,,,,,,,,,,,Required,2025-09-17,Approved,Char
IG_ADAE_GSKADaMMDES1.IT_STUDYID_GSKADaMADAEMDE1,20,ADAE,STUDYID,Study Identifier,text,9,,,2,Yes,,,,,,,,,,,,Required,2025-09-17,Approved,Char
IG_ADAE_GSKADaMMDES1.IT_SUBJID_GSKADaMADAEMDE1,25,ADAE,SUBJID,Subject Identifier for the Study,text,20,,,,Yes,,,,,,,,,,,,Required,2025-09-17,Approved,Char
IG_ADAE_GSKADaMMDES1.IT_SITEID_GSKADaMADAEMDE1,30,ADAE,SITEID,Study Site Identifier,text,10,,,,Yes,,,,,,,,,,,,Required,2025-09-17,Approved,Char
IG_ADAE_GSKADaMMDES1.IT_AAGE9U_GSKADaMADAEMDE1,42,ADAE,AAGE9U,AE Analysis Age Units,text,,,,,No,,,,,,MT_AAGE9U_GSKADaMADAEMDE1,,,,,,,2025-09-17,Approved,Char
IG_ADAE_GSKADaMMDES1.IT_TRTP_GSKADaMADAEMDE1,120,ADAE,TRTP,Planned Treatment,text,100,,,,No,,,,,,MT_TRTP_GSKADaMADAEMDE1,,,,,,,2025-09-17,Approved,Char
IG_ADAE_GSKADaMMDES1.IT_AECAT_GSKADaMADAEMDE1,129,ADAE,AECAT,Category for Adverse Event,text,,,,,No,,,,,,,,,,,,,2025-09-17,Approved,Char
IG_ADAE_GSKADaMMDES1.IT_AESITE_GSKADaMADAEMDE1,135,ADAE,AESITE,AE Site,text,,,,,No,,,,,,MT_AESITE_GSKADaMADAEMDE1,,,,,,,2025-09-17,Approved,Char
IG_ADAE_GSKADaMMDES1.IT_ASITE_GSKADaMADAEMDE1,139,ADAE,ASITE,Analysis AE Site,text,,,,,No,,,,,,MT_ASITE_GSKADaMADAEMDE1,,,,,,,2025-09-17,Approved,Char
IG_ADAE_GSKADaMMDES1.IT_TRTA_GSKADaMADAEMDE1,140,ADAE,TRTA,Actual Treatment,text,100,,,,No,,,,,,,,,,,,,2025-09-17,Approved,Char
IG_ADAE_GSKADaMMDES1.IT_AEPCIND_GSKADaMADAEMDE1,141,ADAE,AEPCIND,Parent or Child Indication,text,,,,,No,,,,,,MT_AEPCIND_GSKADaMADAEMDE1,,,,,,,2025-09-17,Approved,Char
IG_ADAE_GSKADaMMDES1.IT_AERDGCD_GSKADaMADAEMDE1,142,ADAE,AERDGCD,Related Study Vaccines,text,,,,,No,,,,,,MT_AERDGCD_GSKADaMADAEMDE1,,,,,,,2025-09-17,Approved,Char
IG_ADAE_GSKADaMMDES1.IT_AEPST30M_GSKADaMADAEMDE1,143,ADAE,AEPST30M,Within 30 Min Immediate Post Vaccination,text,,,,,No,,,,,,MT_AEPST30M_GSKADaMADAEMDE1,,,,,,,2025-09-17,Approved,Char
IG_ADAE_GSKADaMMDES1.IT_AEPIMD_GSKADaMADAEMDE1,144,ADAE,AEPIMD,Potential Immune Mediated Disease,text,,,,,No,,,,,,MT_AEPIMD_GSKADaMADAEMDE1,,,,,,,2025-09-17,Approved,Char
IG_ADAE_GSKADaMMDES1.IT_AESI_GSKADaMADAEMDE1,145,ADAE,AESI,Adverse Event of Special Interest,text,,,,,No,,,,,,MT_AESI_GSKADaMADAEMDE1,,,,,,,2025-09-17,Approved,Char
IG_ADAE_GSKADaMMDES1.IT_APERIODC_GSKADaMADAEMDE1,147,ADAE,APERIODC,Period (C),text,100,,,,No,,,,,,,,,,,,,2025-09-17,Approved,Char
IG_ADAE_GSKADaMMDES1.IT_AEMEDTYP_GSKADaMADAEMDE1,150,ADAE,AEMEDTYP,Medically Attended Visit,text,,,,,No,,,,,,MT_AEMEDTYP_GSKADaMADAEMDE1,,,,,,,2025-09-17,Approved,Char
IG_ADAE_GSKADaMMDES1.IT_ASPERC_GSKADaMADAEMDE1,151,ADAE,ASPERC,Subperiod within Period (C),text,100,,,,No,,,,,,,,,,,,Permissible,2025-09-17,Approved,Char
IG_ADAE_GSKADaMMDES1.IT_AAEACNOT_GSKADaMADAEMDE1,152,ADAE,AAEACNOT,Analysis Other Action Taken,text,230,,,,No,,,,,,MT_AAEACNOT_GSKADaMADAEMDE1,,,,,,Permissible,2025-09-17,Approved,Char
IG_ADAE_GSKADaMMDES1.IT_ATPT_GSKADaMADAEMDE1,153,ADAE,ATPT,Analysis Time Point,text,40,,,,No,,,,,,,,,,,,,2025-09-17,Approved,Char
IG_ADAE_GSKADaMMDES1.IT_ASPDOSE_GSKADaMADAEMDE1,154,ADAE,ASPDOSE,Dose Number,text,,,,,No,,,,,,MT_ASPDOSE_GSKADaMADAEMDE1,,,,,,,2025-09-17,Approved,Char
IG_ADAE_GSKADaMMDES1.IT_TRT01A_GSKADaMADAEMDE1,160,ADAE,TRT01A,Actual Treatment for Period 01,text,100,,,,No,,,,,,,,,,,,,2025-09-17,Approved,Char
IG_ADAE_GSKADaMMDES1.IT_AESTRTPT_GSKADaMADAEMDE1,162,ADAE,AESTRTPT,Start Relative to Reference Time Point,text,,,,,No,,,,,,,,,,,,,2025-09-17,Approved,Char
IG_ADAE_GSKADaMMDES1.IT_AESTTPT_GSKADaMADAEMDE1,163,ADAE,AESTTPT,Start Reference Time Point,text,,,,,No,,,,,,,,,,,,,2025-09-17,Approved,Char
IG_ADAE_GSKADaMMDES1.IT_TRT01P_GSKADaMADAEMDE1,180,ADAE,TRT01P,Planned Treatment for Period 01,text,100,,,,Yes,,,,,,,,,,,,Required,2025-09-17,Approved,Char
IG_ADAE_GSKADaMMDES1.IT_AAEACN_GSKADaMADAEMDE1,181,ADAE,AAEACN,Analysis Action with Study Treatment,text,240,,,,No,,,,,,MT_AAEACN_GSKADaMADAEMDE1,,,,,,Permissible,2025-09-17,Approved,Char
IG_ADAE_GSKADaMMDES1.IT_AECREAS_GSKADaMADAEMDE1,182,ADAE,AECREAS,Analysis Reason vaccine not given,text,,,,,No,,,,,,MT_AECREAS_GSKADaMADAEMDE1,,,,,,,2025-09-17,Approved,Char
IG_ADAE_GSKADaMMDES1.IT_AECREAVS_GSKADaMADAEMDE1,183,ADAE,AECREAVS,Analysis Visit(s) vaccine not given,text,,,,,No,,,,,,MT_AECREAVS_GSKADaMADAEMDE1,,,,,,,2025-09-17,Approved,Char
IG_ADAE_GSKADaMMDES1.IT_AAEACT_GSKADaMADAEMDE1,184,ADAE,AAEACT,Analysis Action Taken,text,220,,,,No,,,,,,MT_AAEACT_GSKADaMADAEMDE1,,,,,,Permissible,2025-09-17,Approved,Char
IG_ADAE_GSKADaMMDES1.IT_APIMD_GSKADaMADAEMDE1,186,ADAE,APIMD,Analysis Potential Immune Med Disease,text,,,,,No,,,,,,MT_APIMD_GSKADaMADAEMDE1,,,,,,,2025-09-17,Approved,Char
IG_ADAE_GSKADaMMDES1.IT_APIMDSRC_GSKADaMADAEMDE1,187,ADAE,APIMDSRC,Analysis Potential Imm Med Dis Source,text,,,,,No,,,,,,MT_APIMDSRC_GSKADaMADAEMDE1,,,,,,,2025-09-17,Approved,Char
IG_ADAE_GSKADaMMDES1.IT_TRTSEQP_GSKADaMADAEMDE1,200,ADAE,TRTSEQP,Planned Sequence of Treatments,text,200,,,,No,,,,,,,,,,,,,2025-09-17,Approved,Char
IG_ADAE_GSKADaMMDES1.IT_ILIFL_GSKADaMADAEMDE1,201,ADAE,ILIFL,ILI episode Flag,text,,,,,No,,,,,,,,,,,,,2025-09-17,Approved,Char
IG_ADAE_GSKADaMMDES1.IT_TRTSEQA_GSKADaMADAEMDE1,220,ADAE,TRTSEQA,Actual Sequence of Treatments (N),text,200,,,,No,,,,,,,,,,,,,2025-09-17,Approved,Char
IG_ADAE_GSKADaMMDES1.IT_ANL01FL_GSKADaMADAEMDE1,223,ADAE,ANL01FL,"Analysis Flag 01, drop ong. Sol. events",text,1,,,,Yes,,,,,,MT_ANL01FL_GSKADaMADAEMDE1,,,,,,Required,2025-09-17,Approved,Char
IG_ADAE_GSKADaMMDES1.IT_TPERIODC_GSKADaMADAEMDE1,250,ADAE,TPERIODC,Treatment Period (C),text,100,,,,No,,,,,,,,,,,,,2025-09-17,Approved,Char
IG_ADAE_GSKADaMMDES1.IT_APHASE_GSKADaMADAEMDE1,260,ADAE,APHASE,Phase,text,100,,,,No,,,,,,MT_APHASE_GSKADaMADAEMDE1,,,,,,Permissible,2025-09-17,Approved,Char
IG_ADAE_GSKADaMMDES1.IT_AETERM_GSKADaMADAEMDE1,460,ADAE,AETERM,Reported Term for the Adverse Event,text,200,,,,Yes,,,,,,,,,,,,Required,2025-09-17,Approved,Char
IG_ADAE_GSKADaMMDES1.IT_AEMODIFY_GSKADaMADAEMDE1,470,ADAE,AEMODIFY,Modified Reported Term,text,200,,,,No,,,,,,,,,,,,,2025-09-17,Approved,Char
IG_ADAE_GSKADaMMDES1.IT_AEBODL_GSKADaMADAEMDE1,491,ADAE,AEBODL,Body System or Organ Class (Code),text,,,,,No,,,,,,MT_AEBODL_GSKADaMADAEMDE1,,,,,,,2025-09-17,Approved,Char
IG_ADAE_GSKADaMMDES1.IT_ADURU_GSKADaMADAEMDE1,610,ADAE,ADURU,Analysis Duration Units,text,40,,,,Yes,,,,,,MT_ADURU_GSKADaMADAEMDE1,,,,,,Required,2025-09-17,Approved,Char
IG_ADAE_GSKADaMMDES1.IT_ADURC_GSKADaMADAEMDE1,620,ADAE,ADURC,Analysis Duration,text,8,,,,Yes,,,,,,MT_ADURC_GSKADaMADAEMDE1,,,,,,Required,2025-09-17,Approved,Char
IG_ADAE_GSKADaMMDES1.IT_HOSPFL_GSKADaMADAEMDE1,725,ADAE,HOSPFL,Hospitalization Flag,text,1,,,,No,,,,,,,,,,,,,2025-09-17,Approved,Char
IG_ADAE_GSKADaMMDES1.IT_AEREFID_GSKADaMADAEMDE1,730,ADAE,AEREFID,Reference ID,text,200,,,,No,,,,,,,,,,,,,2025-09-17,Approved,Char
IG_ADAE_GSKADaMMDES1.IT_AEACNOTH_GSKADaMADAEMDE1,740,ADAE,AEACNOTH,Other Action Taken,text,210,,,,No,,,,,,,,,,,,Permissible,2025-09-17,Approved,Char
IG_ADAE_GSKADaMMDES1.IT_AEOUT_GSKADaMADAEMDE1,1060,ADAE,AEOUT,Outcome of Adverse Event,text,200,,,,Yes,,,,,,,,,,,,Required,2025-09-17,Approved,Char
IG_ADAE_GSKADaMMDES1.IT_AREL_GSKADaMADAEMDE1,1100,ADAE,AREL,Analysis Causality,text,25,,,,No,,,,,,,,,,,,Permissible,2025-09-17,Approved,Char
IG_ADAE_GSKADaMMDES1.IT_ATOXGR_GSKADaMADAEMDE1,1140,ADAE,ATOXGR,Analysis Toxicity Grade,text,7,,,,No,,,,,,,,,,,,Permissible,2025-09-17,Approved,Char
IG_ADAE_GSKADaMMDES1.IT_SMQ01NAM_GSKADaMADAEMDE1,1170,ADAE,SMQ01NAM,SMQ 01 Name,text,200,,,,No,,,,,,,,,,,,,2025-09-17,Approved,Char
IG_ADAE_GSKADaMMDES1.IT_SMQ01SC_GSKADaMADAEMDE1,1190,ADAE,SMQ01SC,SMQ 01 Scope,text,6,,,,No,,,,,,,,,,,,,2025-09-17,Approved,Char
IG_ADAE_GSKADaMMDES1.IT_CQ01NAM_GSKADaMADAEMDE1,1210,ADAE,CQ01NAM,Customized Query Vx 01 Name,text,200,,,,No,,,,,,,,,,,,,2025-09-17,Approved,Char
IG_ADAE_GSKADaMMDES1.IT_AFTRTSTC_GSKADaMADAEMDE1,1220,ADAE,AFTRTSTC,Time from First Dose to Start,text,40,,,,No,,,,,,MT_AFTRTSTC_GSKADaMADAEMDE1,,,,,,,2025-09-17,Approved,Char
IG_ADAE_GSKADaMMDES1.IT_ALTRTSTC_GSKADaMADAEMDE1,1230,ADAE,ALTRTSTC,Time from Most Recent Dose to Start,text,40,,,,No,,,,,,MT_ALTRTSTC_GSKADaMADAEMDE1,,,,,,,2025-09-17,Approved,Char
IG_ADAE_GSKADaMMDES1.IT_APFTRSTC_GSKADaMADAEMDE1,1240,ADAE,APFTRSTC,Time from Period First Dose to Start,text,40,,,,No,,,,,,MT_APFTRSTC_GSKADaMADAEMDE1,,,,,,,2025-09-17,Approved,Char
IG_ADAE_GSKADaMMDES1.IT_DOSEU_GSKADaMADAEMDE1,1270,ADAE,DOSEU,Treatment Dose Units,text,20,,,,No,,,,,,,,,,,,,2025-09-17,Approved,Char
IG_ADAE_GSKADaMMDES1.IT_AERDG1_GSKADaMADAEMDE1,1620,ADAE,AERDG1,Related Study Treatment 1,text,200,,,,No,,,,,,,,,,,,,2025-09-17,Approved,Char
IG_ADAE_GSKADaMMDES1.IT_AEDECL_GSKADaMADAEMDE1,1740,ADAE,AEDECL,Dictionary-Derived Term (Code),text,,,,,No,,,,,,,,,,,,,2025-09-17,Approved,Char
IG_ADAE_GSKADaMMDES1.IT_WEIGHTBL_GSKADaMADAEMDE1,35,ADAE,WEIGHTBL,Weight (kg) at Baseline,integer,8,,,,Yes,,,,,,,,,,,,Required,2025-09-17,Approved,Num
IG_ADAE_GSKADaMMDES1.IT_AGE_GSKADaMADAEMDE1,40,ADAE,AGE,Age,integer,8,,,,No,,,,,,,,,,,,,2025-09-17,Approved,Num
IG_ADAE_GSKADaMMDES1.IT_AAGE9_GSKADaMADAEMDE1,41,ADAE,AAGE9,AE Analysis Age - At Occur. of Event,integer,8,,,,No,,,,,,MT_AAGE9_GSKADaMADAEMDE1,,,,,,,2025-09-17,Approved,Num
IG_ADAE_GSKADaMMDES1.IT_SEXN_GSKADaMADAEMDE1,55,ADAE,SEXN,Sex (N),integer,8,,,,No,,,,,,,,,,,,Permissible,2025-09-17,Approved,Num
IG_ADAE_GSKADaMMDES1.IT_RACEN_GSKADaMADAEMDE1,65,ADAE,RACEN,Race (N),integer,8,,,,No,,,,,,,,,,,,Permissible,2025-09-17,Approved,Num
IG_ADAE_GSKADaMMDES1.IT_TRTPN_GSKADaMADAEMDE1,130,ADAE,TRTPN,Planned Treatment (N),integer,8,,,,No,,,,,,,,,,,,,2025-09-17,Approved,Num
IG_ADAE_GSKADaMMDES1.IT_APERIOD_GSKADaMADAEMDE1,146,ADAE,APERIOD,Period,integer,8,,,,No,,,,,,MT_APERIOD_GSKADaMADAEMDE1,,,,,,,2025-09-17,Approved,Num
IG_ADAE_GSKADaMMDES1.IT_ASPER_GSKADaMADAEMDE1,149,ADAE,ASPER,Subperiod within Period,integer,8,,,,No,,,,,,MT_ASPER_GSKADaMADAEMDE1,,,,,,Permissible,2025-09-17,Approved,Num
IG_ADAE_GSKADaMMDES1.IT_TRTAN_GSKADaMADAEMDE1,153,ADAE,TRTAN,Actual Treatment (N),integer,8,,,,No,,,,,,,,,,,,,2025-09-17,Approved,Num
IG_ADAE_GSKADaMMDES1.IT_ASPDOSEN_GSKADaMADAEMDE1,155,ADAE,ASPDOSEN,Dose Number,integer,8,,,,No,,,,,,MT_ASPDOSEN_GSKADaMADAEMDE1,,,,,,,2025-09-17,Approved,Num
IG_ADAE_GSKADaMMDES1.IT_ASPERSDY_GSKADaMADAEMDE1,161,ADAE,ASPERSDY,Analysis Sub-period Start Relative Day,integer,8,,,,No,,,,,,,,,,,,Permissible,2025-09-17,Approved,Num
IG_ADAE_GSKADaMMDES1.IT_TRT01AN_GSKADaMADAEMDE1,170,ADAE,TRT01AN,Actual Treatment for Period 01 (N),integer,8,,,,No,,,,,,,,,,,,,2025-09-17,Approved,Num
IG_ADAE_GSKADaMMDES1.IT_TRT01PN_GSKADaMADAEMDE1,190,ADAE,TRT01PN,Planned Treatment for Period 01 (N),integer,8,,,,No,,,,,,,,,,,,,2025-09-17,Approved,Num
IG_ADAE_GSKADaMMDES1.IT_TRTSEQPN_GSKADaMADAEMDE1,210,ADAE,TRTSEQPN,Planned Sequence of Treatments (N),integer,8,,,,No,,,,,,,,,,,,,2025-09-17,Approved,Num
IG_ADAE_GSKADaMMDES1.IT_TRTSEQAN_GSKADaMADAEMDE1,230,ADAE,TRTSEQAN,Actual Sequence of Treatments,integer,8,,,,No,,,,,,,,,,,,,2025-09-17,Approved,Num
IG_ADAE_GSKADaMMDES1.IT_TPERIOD_GSKADaMADAEMDE1,240,ADAE,TPERIOD,Treatment Period,integer,8,,,,No,,,,,,MT_TPERIOD_GSKADaMADAEMDE1,,,,,,,2025-09-17,Approved,Num
IG_ADAE_GSKADaMMDES1.IT_APHASEN_GSKADaMADAEMDE1,270,ADAE,APHASEN,Phase (N),integer,8,,,,No,,,,,,,,,,,,Permissible,2025-09-17,Approved,Num
IG_ADAE_GSKADaMMDES1.IT_TPERADY_GSKADaMADAEMDE1,280,ADAE,TPERADY,Analysis Relative Day in Trt Period,integer,8,,,,No,,,,,,MT_TPERADY_GSKADaMADAEMDE1,,,,,,Permissible,2025-09-17,Approved,Num
IG_ADAE_GSKADaMMDES1.IT_TPERSTDY_GSKADaMADAEMDE1,290,ADAE,TPERSTDY,Analysis Relative Start Day Trt Period,integer,8,,,,No,,,,,,MT_TPERSTDY_GSKADaMADAEMDE1,,,,,,Permissible,2025-09-17,Approved,Num
IG_ADAE_GSKADaMMDES1.IT_TPERENDY_GSKADaMADAEMDE1,300,ADAE,TPERENDY,Analysis Relative End Day in Trt Period,integer,8,,,,No,,,,,,MT_TPERENDY_GSKADaMADAEMDE1,,,,,,Permissible,2025-09-17,Approved,Num
IG_ADAE_GSKADaMMDES1.IT_ASTDY_GSKADaMADAEMDE1,350,ADAE,ASTDY,Analysis Start Relative Day,integer,8,,,,No,,,,,,MT_ASTDY_GSKADaMADAEMDE1,,,,,,,2025-09-17,Approved,Num
IG_ADAE_GSKADaMMDES1.IT_AESTDY_GSKADaMADAEMDE1,360,ADAE,AESTDY,Study Day of Start of Adverse Event,integer,8,,,,Yes,,,,,,,,,,,,Required,2025-09-17,Approved,Num
IG_ADAE_GSKADaMMDES1.IT_AENDY_GSKADaMADAEMDE1,430,ADAE,AENDY,Analysis End Relative Day,integer,8,,,,Yes,,,,,,MT_AENDY_GSKADaMADAEMDE1,,,,,,Required,2025-09-17,Approved,Num
IG_ADAE_GSKADaMMDES1.IT_AEENDY_GSKADaMADAEMDE1,440,ADAE,AEENDY,Study Day of End of Adverse Event,integer,8,,,,Yes,,,,,,,,,,,,Required,2025-09-17,Approved,Num
IG_ADAE_GSKADaMMDES1.IT_AESEQ_GSKADaMADAEMDE1,450,ADAE,AESEQ,Sequence Number,integer,8,,,5,Yes,,,,,,,,,,,,Required,2025-09-17,Approved,Num
IG_ADAE_GSKADaMMDES1.IT_ADURN_GSKADaMADAEMDE1,600,ADAE,ADURN,Analysis Duration (N),integer,8,,,,Yes,,,,,,,,,,,,Required,2025-09-17,Approved,Num
IG_ADAE_GSKADaMMDES1.IT_ARELN_GSKADaMADAEMDE1,1110,ADAE,ARELN,Analysis Causality (N),integer,8,,,,No,,,,,,,,,,,,Permissible,2025-09-17,Approved,Num
IG_ADAE_GSKADaMMDES1.IT_ATOXGRN_GSKADaMADAEMDE1,1150,ADAE,ATOXGRN,Analysis Toxicity Grade (N),integer,8,,,,No,,,,,,,,,,,,Permissible,2025-09-17,Approved,Num
IG_ADAE_GSKADaMMDES1.IT_SMQ01CD_GSKADaMADAEMDE1,1180,ADAE,SMQ01CD,SMQ 01 Code,integer,8,,,,No,,,,,,,,,,,,,2025-09-17,Approved,Num
IG_ADAE_GSKADaMMDES1.IT_SMQ01SCN_GSKADaMADAEMDE1,1200,ADAE,SMQ01SCN,SMQ 01 Scope (N),integer,8,,,,No,,,,,,,,,,,,,2025-09-17,Approved,Num
IG_ADAE_GSKADaMMDES1.IT_DOSEON_GSKADaMADAEMDE1,1250,ADAE,DOSEON,Treatment Dose at Record Start,integer,8,,,,No,,,,,,,,,,,,Permissible,2025-09-17,Approved,Num
IG_ADAE_GSKADaMMDES1.IT_DOSCUMA_GSKADaMADAEMDE1,1260,ADAE,DOSCUMA,Cumulative Actual Treatment Dose,integer,8,,,,No,,,,,,,,,,,,,2025-09-17,Approved,Num
IG_ADAE_GSKADaMMDES1.IT_AESEV_GSKADaMADAEMDE1,640,ADAE,AESEV,Severity/Intensity,text,20,,,,Yes,CL_AESEV_GSKC66769VD1,,,,,,,,,,,Required,2025-09-17,Approved,Char
IG_ADAE_GSKADaMMDES1.IT_ASEV_GSKADaMADAEMDE1,650,ADAE,ASEV,Analysis Severity/Intensity,text,80,,,,No,CL_AESEV_GSKC66769VD1,,,,,MT_ASEV_GSKADaMADAEMDE1,,,,,,Permissible,2025-09-17,Approved,Char
IG_ADAE_GSKADaMMDES1.IT_AEACN_GSKADaMADAEMDE1,670,ADAE,AEACN,Action Taken with Study Treatment,text,40,,,,Yes,CL_ACN_GSKC66767VD1,,,,,,,,,,,Required,2025-09-17,Approved,Char
IG_ADAE_GSKADaMMDES1.IT_COUNTRY_GSKADaMADAEMDE1,75,ADAE,COUNTRY,Country,text,100,,,,No,CL_COUNTRY_GSKS980006VD1,,,,,,,,,,,Permissible,2025-09-17,Approved,Char
IG_ADAE_GSKADaMMDES1.IT_FASFL_GSKADaMADAEMDE1,80,ADAE,FASFL,Full Analysis Set Population Flag,text,1,,,,No,CL_NY_GSKC66742VD1,,,,,,,,,,,,2025-09-17,Approved,Char
IG_ADAE_GSKADaMMDES1.IT_ITTFL_GSKADaMADAEMDE1,90,ADAE,ITTFL,Intent-To-Treat Population Flag,text,1,,,,No,CL_NY_GSKC66742VD1,,,,,,,,,,,,2025-09-17,Approved,Char
IG_ADAE_GSKADaMMDES1.IT_SAFFL_GSKADaMADAEMDE1,100,ADAE,SAFFL,Safety Population Flag,text,1,,,,No,CL_NY_GSKC66742VD1,,,,,,,,,,,,2025-09-17,Approved,Char
IG_ADAE_GSKADaMMDES1.IT_PPROTFL_GSKADaMADAEMDE1,110,ADAE,PPROTFL,Per-Protocol Population Flag,text,1,,,,No,CL_NY_GSKC66742VD1,,,,,,,,,,,,2025-09-17,Approved,Char
IG_ADAE_GSKADaMMDES1.IT_AETRTEM_GSKADaMADAEMDE1,690,ADAE,AETRTEM,Treatment Emergent Flag,text,1,,,,No,CL_NY_GSKC66742VD1,,,,,,,,,,,Permissible,2025-09-17,Approved,Char
IG_ADAE_GSKADaMMDES1.IT_AESER_GSKADaMADAEMDE1,960,ADAE,AESER,Serious Event,text,1,,,,Yes,CL_NY_GSKC66742VD1,,,,,,,,,,,Required,2025-09-17,Approved,Char
IG_ADAE_GSKADaMMDES1.IT_AEREL_GSKADaMADAEMDE1,1080,ADAE,AEREL,Causality,text,25,,,,Yes,CL_NY_GSKC66742VD1,,,,,,,,,,,Required,2025-09-17,Approved,Char
IG_ADAE_GSKADaMMDES1.IT_AONGO_GSKADaMADAEMDE1,1160,ADAE,AONGO,Ongoing Adverse Event,text,1,,,,Yes,CL_NY_GSKC66742VD1,,,,,,,,,,,Required,2025-09-17,Approved,Char
IG_ADAE_GSKADaMMDES1.IT_RACE_GSKADaMADAEMDE1,60,ADAE,RACE,Race,text,100,,,,No,CL_RACE_GSKC74457VD1,,,,,,,,,,,,2025-09-17,Approved,Char
IG_ADAE_GSKADaMMDES1.IT_SEX_GSKADaMADAEMDE1,50,ADAE,SEX,Sex,text,1,,,,No,CL_SEX_GSKC66731VD1,,,,,,,,,,,,2025-09-17,Approved,Char
IG_ADAE_GSKADaMMDES1.IT_ACOUNTRY_GSKADaMADAEMDE1,70,ADAE,ACOUNTRY,Analysis Country,text,100,,,,No,CL_ACOUNTRY_S404008VD1,,,,,,,,,,,Permissible,2025-09-17,Approved,Char
IG_ADAE_GSKADaMMDES1.IT_AETOXGRN_GSKADaMADAEMDE1,1130,ADAE,AETOXGRN,Standard Toxicity Grade (N),text,8,,,,No,CL_ADAE_AETOXGRN_S4040024VD1,,,,,,,,,,,,2025-09-17,Approved,Char
IG_ADAE_GSKADaMMDES1.IT_AESEVN_GSKADaMADAEMDE1,650,ADAE,AESEVN,Severity/Intensity (N),text,8,,,,Yes,CL_ADAE_ASEVN_S4040025VD1,,,,,MT_AESEVN_GSKADaMADAEMDE1,,,,,,Required,2025-09-17,Approved,Char
IG_ADAE_GSKADaMMDES1.IT_ASEVN_GSKADaMADAEMDE1,660,ADAE,ASEVN,Analysis Severity/Intensity (N),text,8,,,,No,CL_ADAE_ASEVN_S4040025VD1,,,,,MT_ASEVN_GSKADaMADAEMDE1,,,,,,Permissible,2025-09-17,Approved,Char
IG_ADAE_GSKADaMMDES1.IT_ASTDTF_GSKADaMADAEMDE1,340,ADAE,ASTDTF,Analysis Start Date Imputation Flag,text,1,,,,No,CL_DATEFL_S4040026VD1,,,,,,,,,,,,2025-09-17,Approved,Char
IG_ADAE_GSKADaMMDES1.IT_AENDTF_GSKADaMADAEMDE1,400,ADAE,AENDTF,Analysis End Date Imputation Flag,text,1,,,,No,CL_DATEFL_S4040026VD1,,,,,,,,,,,,2025-09-17,Approved,Char
IG_ADAE_GSKADaMMDES1.IT_AETOXGR_GSKADaMADAEMDE1,1120,ADAE,AETOXGR,Standard Toxicity Grade,text,100,,,,No,CL_GRADE_S4040023VD1,,,,,,,,,,,,2025-09-17,Approved,Char
IG_ADAE_GSKADaMMDES1.IT_TRTEMFL_GSKADaMADAEMDE1,680,ADAE,TRTEMFL,Treatment Emergent Analysis Flag,text,1,,,,No,CL_Y_BLANK_S404004VD1,,,,,MT_TRTEMFL_GSKADaMADAEMDE1,,,,,,,2025-09-17,Approved,Char
IG_ADAE_GSKADaMMDES1.IT_PREFL_GSKADaMADAEMDE1,710,ADAE,PREFL,Pre-treatment Flag,text,1,,,,No,CL_Y_BLANK_S404004VD1,,,,,,,,,,,,2025-09-17,Approved,Char
IG_ADAE_GSKADaMMDES1.IT_FUPFL_GSKADaMADAEMDE1,720,ADAE,FUPFL,Follow-up Flag,text,1,,,,No,CL_Y_BLANK_S404004VD1,,,,,,,,,,,,2025-09-17,Approved,Char
IG_ADAE_GSKADaMMDES1.IT_AESCAN_GSKADaMADAEMDE1,970,ADAE,AESCAN,Involves Cancer,text,1,,,,No,CL_Y_BLANK_S404004VD1,,,,,,,,,,,,2025-09-17,Approved,Char
IG_ADAE_GSKADaMMDES1.IT_AESCONG_GSKADaMADAEMDE1,980,ADAE,AESCONG,Congenital Anomaly or Birth Defect,text,1,,,,Yes,CL_Y_BLANK_S404004VD1,,,,,,,,,,,Required,2025-09-17,Approved,Char
IG_ADAE_GSKADaMMDES1.IT_AESDISAB_GSKADaMADAEMDE1,990,ADAE,AESDISAB,Persist or Signif Disability/Incapacity,text,1,,,,Yes,CL_Y_BLANK_S404004VD1,,,,,,,,,,,Required,2025-09-17,Approved,Char
IG_ADAE_GSKADaMMDES1.IT_AESDTH_GSKADaMADAEMDE1,1000,ADAE,AESDTH,Results in Death,text,1,,,,Yes,CL_Y_BLANK_S404004VD1,,,,,,,,,,,Required,2025-09-17,Approved,Char
IG_ADAE_GSKADaMMDES1.IT_AESHOSP_GSKADaMADAEMDE1,1010,ADAE,AESHOSP,Requires or Prolongs Hospitalization,text,1,,,,Yes,CL_Y_BLANK_S404004VD1,,,,,,,,,,,Required,2025-09-17,Approved,Char
IG_ADAE_GSKADaMMDES1.IT_AESLIFE_GSKADaMADAEMDE1,1020,ADAE,AESLIFE,Is Life Threatening,text,1,,,,Yes,CL_Y_BLANK_S404004VD1,,,,,,,,,,,Required,2025-09-17,Approved,Char
IG_ADAE_GSKADaMMDES1.IT_AESOD_GSKADaMADAEMDE1,1030,ADAE,AESOD,Occurred with Overdose,text,1,,,,No,CL_Y_BLANK_S404004VD1,,,,,,,,,,,,2025-09-17,Approved,Char
IG_ADAE_GSKADaMMDES1.IT_AESMIE_GSKADaMADAEMDE1,1040,ADAE,AESMIE,Other Medically Important Serious Event,text,1,,,,Yes,CL_Y_BLANK_S404004VD1,,,,,,,,,,,Required,2025-09-17,Approved,Char
IG_ADAE_GSKADaMMDES1.IT_AESPROT_GSKADaMADAEMDE1,1050,ADAE,AESPROT,Possible Drug-induced Liver Injury,text,1,,,,No,CL_Y_BLANK_S404004VD1,,,,,,,,,,,,2025-09-17,Approved,Char
IG_ADAE_GSKADaMMDES1.IT_ASTTM_GSKADaMADAEMDE1,320,ADAE,ASTTM,Analysis Start Time,time,,,,,No,,,,,,MT_ASTTM_GSKADaMADAEMDE1,,,,,,,2025-09-17,Approved,Char
IG_ADAE_GSKADaMMDES1.IT_AENTM_GSKADaMADAEMDE1,380,ADAE,AENTM,Analysis End Time,time,,,,,No,,,,,,MT_AENTM_GSKADaMADAEMDE1,,,,,,,2025-09-17,Approved,Char
IG_ADAE_GSKADaMMDES1.IT_ASTDTM_GSKADaMADAEMDE1,330,ADAE,ASTDTM,Analysis Start Datetime,datetime,,,,,No,,,,,,MT_ASTDTM_GSKADaMADAEMDE1,,,,,,,2025-09-17,Approved,Char
IG_ADAE_GSKADaMMDES1.IT_AENDTM_GSKADaMADAEMDE1,390,ADAE,AENDTM,Analysis End Datetime,datetime,,,,,No,,,,,,MT_AENDTM_GSKADaMADAEMDE1,,,,,,,2025-09-17,Approved,Char
IG_ADAE_GSKADaMMDES1.IT_AEBODLG_GSKADaMADAEMDE1,492,ADAE,AEBODLG,Legacy Body System or Organ Class,text,200,,,,No,CL_LEGACY_S4040055VD1,,,,,,,,,,,,2025-09-17,Approved,Char
IG_ADAE_GSKADaMMDES1.IT_AEBDSYLG_GSKADaMADAEMDE1,493,ADAE,AEBDSYLG,Legacy Preferred Term,text,8,,,,No,CL_LEGACY_S4040055VD1,,,,,,,,,,,,2025-09-17,Approved,Char
IG_ADAE_GSKADaMMDES1.IT_AEOUTN_GSKADaMADAEMDE1,1070,ADAE,AEOUTN,Outcome of Adverse Event (N),text,8,,,,Yes,CL_ADAE_AEOUTN_S4040021VD1,,,,,MT_AEOUTN_GSKADaMADAEMDE1,,,,,,Required,2025-09-17,Approved,Char
IG_ADAE_GSKADaMMDES1.IT_ASTDT_GSKADaMADAEMDE1,310,ADAE,ASTDT,Analysis Start Date,datetime,,,,3,Yes,,,,,,,,,,,,Required,2025-09-17,Approved,Char
IG_ADAE_GSKADaMMDES1.IT_AENDT_GSKADaMADAEMDE1,370,ADAE,AENDT,Analysis End Date,datetime,,,,,Yes,,,,,,MT_AENDT_GSKADaMADAEMDE1,,,,,,Required,2025-09-17,Approved,Char
IG_ADAE_GSKADaMMDES1.IT_AESTDTC_GSKADaMADAEMDE1,410,ADAE,AESTDTC,Start Date/Time of Adverse Event,text,,,,,Yes,,,,,,,,,,,,Required,2025-09-17,Approved,Char
IG_ADAE_GSKADaMMDES1.IT_AEENDTC_GSKADaMADAEMDE1,420,ADAE,AEENDTC,End Date/Time of Adverse Event,text,,,,,Yes,,,,,,,,,,,,Required,2025-09-17,Approved,Char
IG_ADAE_GSKADaMMDES1.IT_AEDUR_GSKADaMADAEMDE1,630,ADAE,AEDUR,Duration of Adverse Event,text,200,,,,No,,,,,,,,,,,,,2025-09-17,Approved,Char
IG_ADAE_GSKADaMMDES1.IT_AEDECOD_GSKADaMADAEMDE1,480,ADAE,AEDECOD,Dictionary-Derived Term,text,200,,,4,Yes,CL.MEDDRA_SponsorVD1,,,,,,,,,,,Required,2025-09-17,Approved,Char
IG_ADAE_GSKADaMMDES1.IT_AEBODSYS_GSKADaMADAEMDE1,490,ADAE,AEBODSYS,Body System or Organ Class,text,200,,,,Yes,CL.MEDDRA_SponsorVD1,,,,,,,,,,,Required,2025-09-17,Approved,Char
IG_ADAE_GSKADaMMDES1.IT_AEBDSYCD_GSKADaMADAEMDE1,500,ADAE,AEBDSYCD,Body System or Organ Class Code,integer,8,,,,Yes,CL.MEDDRA_SponsorNumVD1,,,,,,,,,,,Required,2025-09-17,Approved,Num
IG_ADAE_GSKADaMMDES1.IT_AELLT_GSKADaMADAEMDE1,510,ADAE,AELLT,Lowest Level Term,text,200,,,,Yes,CL.MEDDRA_SponsorVD1,,,,,,,,,,,Required,2025-09-17,Approved,Char
IG_ADAE_GSKADaMMDES1.IT_AELLTCD_GSKADaMADAEMDE1,520,ADAE,AELLTCD,Lowest Level Term Code,integer,8,,,,Yes,CL.MEDDRA_SponsorNumVD1,,,,,,,,,,,Required,2025-09-17,Approved,Num
IG_ADAE_GSKADaMMDES1.IT_AEPTCD_GSKADaMADAEMDE1,530,ADAE,AEPTCD,Preferred Term Code,integer,8,,,,Yes,CL.MEDDRA_SponsorNumVD1,,,,,,,,,,,Required,2025-09-17,Approved,Num
IG_ADAE_GSKADaMMDES1.IT_AEHLT_GSKADaMADAEMDE1,540,ADAE,AEHLT,High Level Term,text,200,,,,Yes,CL.MEDDRA_SponsorVD1,,,,,,,,,,,Required,2025-09-17,Approved,Char
IG_ADAE_GSKADaMMDES1.IT_AEHLTCD_GSKADaMADAEMDE1,550,ADAE,AEHLTCD,High Level Term Code,integer,8,,,,Yes,CL.MEDDRA_SponsorNumVD1,,,,,,,,,,,Required,2025-09-17,Approved,Num
IG_ADAE_GSKADaMMDES1.IT_AEHLGT_GSKADaMADAEMDE1,560,ADAE,AEHLGT,High Level Group Term,text,200,,,,Yes,CL.MEDDRA_SponsorVD1,,,,,,,,,,,Required,2025-09-17,Approved,Char
IG_ADAE_GSKADaMMDES1.IT_AEHLGTCD_GSKADaMADAEMDE1,570,ADAE,AEHLGTCD,High Level Group Term Code,integer,8,,,,Yes,CL.MEDDRA_SponsorNumVD1,,,,,,,,,,,Required,2025-09-17,Approved,Num
IG_ADAE_GSKADaMMDES1.IT_AESOC_GSKADaMADAEMDE1,580,ADAE,AESOC,Primary System Organ Class,text,200,,,,Yes,CL.MEDDRA_SponsorVD1,,,,,,,,,,,Required,2025-09-17,Approved,Char
IG_ADAE_GSKADaMMDES1.IT_AESOCCD_GSKADaMADAEMDE1,590,ADAE,AESOCCD,Primary System Organ Class Code,integer,8,,,,Yes,CL.MEDDRA_SponsorNumVD1,,,,,,,,,,,Required,2025-09-17,Approved,Num
IG_ADAE_GSKADaMMDES1.IT_ACT1GK1_GSKADaMADAEMDE2,675,ADAE,ACT1GK1,Action Taken 1,text,200,,,,No,,,,,,,,,,,,,2025-09-17,Approved,Char
IG_ADAE_GSKADaMMDES1.IT_TESTRM_MDE1,,ADAE,TESTRM,Missing,text,,,,,No,,,,,,,,,,,,,2025-09-17,Approved,Char
