{
  "datasetJSONCreationDateTime": "2026-08-08T17:39:51.915132+00:00",
  "datasetJSONVersion": "1.1.0",
  "fileOID": "ODM.DEFINE21.d611c8de-4b6f-44ff-ade2-b82a6aab83d1",
  "studyOID": "ODM.LZZT - NEW.Version1.Design1",
  "metaDataVersionOID": "MDV.LZZT---NEW",
  "itemGroupOID": "IG.DEFINE.CODELISTS",
  "records": 53,
  "name": "codelists",
  "label": "CodeList Definitions",
  "columns": [
    {
      "itemOID": "DEFINE.CL.OID",
      "name": "OID",
      "label": "CodeList OID",
      "dataType": "string",
      "keySequence": 1
    },
    {
      "itemOID": "DEFINE.CL.NAME",
      "name": "Name",
      "label": "CodeList Name",
      "dataType": "string"
    },
    {
      "itemOID": "DEFINE.CL.DATATYPE",
      "name": "DataType",
      "label": "Data Type",
      "dataType": "string"
    },
    {
      "itemOID": "DEFINE.CL.ISNONSTANDARD",
      "name": "IsNonStandard",
      "label": "Is Non-Standard",
      "dataType": "string"
    },
    {
      "itemOID": "DEFINE.CL.STANDARDOID",
      "name": "StandardOID",
      "label": "Standard OID",
      "dataType": "string"
    },
    {
      "itemOID": "DEFINE.CL.SASFORMATNAME",
      "name": "SASFormatName",
      "label": "SAS Format Name",
      "dataType": "string"
    },
    {
      "itemOID": "DEFINE.CL.COMMENTOID",
      "name": "CommentOID",
      "label": "Comment OID",
      "dataType": "string"
    },
    {
      "itemOID": "DEFINE.CL.DESCRIPTIONTEXT",
      "name": "DescriptionText",
      "label": "Description",
      "dataType": "string"
    },
    {
      "itemOID": "DEFINE.CL.EXTERNALDICTIONARY",
      "name": "ExternalDictionary",
      "label": "External Dictionary",
      "dataType": "string"
    },
    {
      "itemOID": "DEFINE.CL.EXTERNALVERSION",
      "name": "ExternalVersion",
      "label": "External Version",
      "dataType": "string"
    },
    {
      "itemOID": "DEFINE.CL.EXTERNALREF",
      "name": "ExternalRef",
      "label": "External Ref",
      "dataType": "string"
    },
    {
      "itemOID": "DEFINE.CL.EXTERNALHREF",
      "name": "ExternalHref",
      "label": "External Href",
      "dataType": "string"
    }
  ],
  "rows": [
    [
      "CL.ARMCD",
      "ARM Code",
      "text",
      "Yes",
      null,
      null,
      null,
      null,
      null,
      null,
      null,
      null
    ],
    [
      "CL.ARM",
      "ARM",
      "text",
      "Yes",
      null,
      null,
      null,
      null,
      null,
      null,
      null,
      null
    ],
    [
      "CL.IETEST",
      "Inclusion/Exclusion Test Name",
      "text",
      "Yes",
      null,
      null,
      null,
      null,
      null,
      null,
      null,
      null
    ],
    [
      "CL.IETESTCD",
      "Inclusion/Exclusion Test Code",
      "text",
      "Yes",
      null,
      null,
      null,
      null,
      null,
      null,
      null,
      null
    ],
    [
      "CL.ELEMENT",
      "Description of Element",
      "text",
      "Yes",
      null,
      null,
      null,
      null,
      null,
      null,
      null,
      null
    ],
    [
      "CL.ETCD",
      "Element Code",
      "text",
      "Yes",
      null,
      null,
      null,
      null,
      null,
      null,
      null,
      null
    ],
    [
      "CL.EPOCH",
      "Epoch",
      "text",
      null,
      "STD.SDTMCT",
      null,
      null,
      null,
      null,
      null,
      null,
      null
    ],
    [
      "CL.NCOMPLT",
      "Completion/Reason for Non-Completion",
      "text",
      null,
      "STD.SDTMCT",
      null,
      null,
      null,
      null,
      null,
      null,
      null
    ],
    [
      "CL.DSCAT",
      "Category of Disposition Event",
      "text",
      null,
      "STD.SDTMCT",
      null,
      null,
      null,
      null,
      null,
      null,
      null
    ],
    [
      "CL.DSSCAT",
      "Subcategory for Disposition Event",
      "text",
      null,
      "STD.SDTMCT",
      null,
      null,
      null,
      null,
      null,
      null,
      null
    ],
    [
      "CL.NY",
      "No Yes Response",
      "text",
      null,
      "STD.SDTMCT",
      null,
      null,
      null,
      null,
      null,
      null,
      null
    ],
    [
      "CL.AGEU",
      "Age Unit",
      "text",
      null,
      "STD.SDTMCT",
      null,
      null,
      null,
      null,
      null,
      null,
      null
    ],
    [
      "CL.SEX",
      "Sex",
      "text",
      null,
      "STD.SDTMCT",
      null,
      null,
      null,
      null,
      null,
      null,
      null
    ],
    [
      "CL.RACE",
      "Race",
      "text",
      null,
      "STD.SDTMCT",
      null,
      null,
      null,
      null,
      null,
      null,
      null
    ],
    [
      "CL.ETHNIC",
      "Ethnic Group",
      "text",
      null,
      "STD.SDTMCT",
      null,
      null,
      null,
      null,
      null,
      null,
      null
    ],
    [
      "CL.ARMNULRS",
      "Arm Null Reason",
      "text",
      null,
      "STD.SDTMCT",
      null,
      null,
      null,
      null,
      null,
      null,
      null
    ],
    [
      "CL.SCTESTCD",
      "Subject Characteristic Test Code",
      "text",
      null,
      "STD.SDTMCT",
      null,
      null,
      null,
      null,
      null,
      null,
      null
    ],
    [
      "CL.SCTEST",
      "Subject Characteristic Test Name",
      "text",
      null,
      "STD.SDTMCT",
      null,
      null,
      null,
      null,
      null,
      null,
      null
    ],
    [
      "CL.UNIT",
      "Unit",
      "text",
      null,
      "STD.SDTMCT",
      null,
      null,
      null,
      null,
      null,
      null,
      null
    ],
    [
      "CL.STENRF",
      "Relation to Reference Period",
      "text",
      null,
      "STD.SDTMCT",
      null,
      null,
      null,
      null,
      null,
      null,
      null
    ],
    [
      "CL.FREQ",
      "Frequency",
      "text",
      null,
      "STD.SDTMCT",
      null,
      null,
      null,
      null,
      null,
      null,
      null
    ],
    [
      "CL.PROCEDUR",
      "Procedure",
      "text",
      null,
      "STD.SDTMCT",
      null,
      null,
      null,
      null,
      null,
      null,
      null
    ],
    [
      "CL.LOC",
      "Anatomical Location",
      "text",
      null,
      "STD.SDTMCT",
      null,
      null,
      null,
      null,
      null,
      null,
      null
    ],
    [
      "CL.VSTESTCD",
      "Vital Signs Test Code",
      "text",
      null,
      "STD.SDTMCT",
      null,
      null,
      null,
      null,
      null,
      null,
      null
    ],
    [
      "CL.VSTEST",
      "Vital Signs Test Name",
      "text",
      null,
      "STD.SDTMCT",
      null,
      null,
      null,
      null,
      null,
      null,
      null
    ],
    [
      "CL.POSITION",
      "Position",
      "text",
      null,
      "STD.SDTMCT",
      null,
      null,
      null,
      null,
      null,
      null,
      null
    ],
    [
      "CL.VSRESU",
      "Units for Vital Signs Results",
      "text",
      null,
      "STD.SDTMCT",
      null,
      null,
      null,
      null,
      null,
      null,
      null
    ],
    [
      "CL.LAT",
      "Laterality",
      "text",
      null,
      "STD.SDTMCT",
      null,
      null,
      null,
      null,
      null,
      null,
      null
    ],
    [
      "CL.EGTESTCD",
      "ECG Test Code",
      "text",
      null,
      "STD.SDTMCT",
      null,
      null,
      null,
      null,
      null,
      null,
      null
    ],
    [
      "CL.EGTEST",
      "ECG Test Name",
      "text",
      null,
      "STD.SDTMCT",
      null,
      null,
      null,
      null,
      null,
      null,
      null
    ],
    [
      "CL.EGSTRESC",
      "ECG Result",
      "text",
      null,
      "STD.SDTMCT",
      null,
      null,
      null,
      null,
      null,
      null,
      null
    ],
    [
      "CL.EGMETHOD",
      "ECG Test Method",
      "text",
      null,
      "STD.SDTMCT",
      null,
      null,
      null,
      null,
      null,
      null,
      null
    ],
    [
      "CL.EVAL",
      "Evaluator",
      "text",
      null,
      "STD.SDTMCT",
      null,
      null,
      null,
      null,
      null,
      null,
      null
    ],
    [
      "CL.FRM",
      "Dosage Form",
      "text",
      null,
      "STD.SDTMCT",
      null,
      null,
      null,
      null,
      null,
      null,
      null
    ],
    [
      "CL.ROUTE",
      "Route of Administration Response",
      "text",
      null,
      "STD.SDTMCT",
      null,
      null,
      null,
      null,
      null,
      null,
      null
    ],
    [
      "CL.LBTESTCD",
      "Laboratory Test Code",
      "text",
      null,
      "STD.SDTMCT",
      null,
      null,
      null,
      null,
      null,
      null,
      null
    ],
    [
      "CL.LBTEST",
      "Laboratory Test Name",
      "text",
      null,
      "STD.SDTMCT",
      null,
      null,
      null,
      null,
      null,
      null,
      null
    ],
    [
      "CL.LBSTRESC",
      "Laboratory Test Standard Character Result",
      "text",
      null,
      "STD.SDTMCT",
      null,
      null,
      null,
      null,
      null,
      null,
      null
    ],
    [
      "CL.NRIND",
      "Reference Range Indicator",
      "text",
      null,
      "STD.SDTMCT",
      null,
      null,
      null,
      null,
      null,
      null,
      null
    ],
    [
      "CL.SPECTYPE",
      "Specimen Type",
      "text",
      null,
      "STD.SDTMCT",
      null,
      null,
      null,
      null,
      null,
      null,
      null
    ],
    [
      "CL.METHOD",
      "Method",
      "text",
      null,
      "STD.SDTMCT",
      null,
      null,
      null,
      null,
      null,
      null,
      null
    ],
    [
      "CL.MBTESTCD",
      "Microbiology Test Code",
      "text",
      null,
      "STD.SDTMCT",
      null,
      null,
      null,
      null,
      null,
      null,
      null
    ],
    [
      "CL.MBTEST",
      "Microbiology Test Name",
      "text",
      null,
      "STD.SDTMCT",
      null,
      null,
      null,
      null,
      null,
      null,
      null
    ],
    [
      "CL.MBFTSDTL",
      "Microbiology Findings Test Details",
      "text",
      null,
      "STD.SDTMCT",
      null,
      null,
      null,
      null,
      null,
      null,
      null
    ],
    [
      "CL.DIR",
      "Directionality",
      "text",
      null,
      "STD.SDTMCT",
      null,
      null,
      null,
      null,
      null,
      null,
      null
    ],
    [
      "CL.AESEV",
      "Severity/Intensity Scale for Adverse Events",
      "text",
      null,
      "STD.SDTMCT",
      null,
      null,
      null,
      null,
      null,
      null,
      null
    ],
    [
      "CL.ACN",
      "Action Taken with Study Treatment",
      "text",
      null,
      "STD.SDTMCT",
      null,
      null,
      null,
      null,
      null,
      null,
      null
    ],
    [
      "CL.OUT",
      "Outcome of Event",
      "text",
      null,
      "STD.SDTMCT",
      null,
      null,
      null,
      null,
      null,
      null,
      null
    ],
    [
      "CL.TSPARMCD",
      "Trial Summary Parameter Test Code",
      "text",
      null,
      "STD.SDTMCT",
      null,
      null,
      null,
      null,
      null,
      null,
      null
    ],
    [
      "CL.TSPARM",
      "Trial Summary Parameter Test Name",
      "text",
      null,
      "STD.SDTMCT",
      null,
      null,
      null,
      null,
      null,
      null,
      null
    ],
    [
      "CL.DICTNAM",
      "Dictionary Name",
      "text",
      null,
      "STD.SDTMCT",
      null,
      null,
      null,
      null,
      null,
      null,
      null
    ],
    [
      "CL.IECAT",
      "Category of Inclusion/Exclusion",
      "text",
      null,
      "STD.SDTMCT",
      null,
      null,
      null,
      null,
      null,
      null,
      null
    ],
    [
      "CL.CNTMODE",
      "Mode of Subject Contact",
      "text",
      null,
      "STD.SDTMCT",
      null,
      null,
      null,
      null,
      null,
      null,
      null
    ]
  ]
}