<?xml version='1.0' encoding='UTF-8'?>
<ODM FileOID="ODM.VS20.001" FileType="Snapshot" Granularity="Metadata" CreationDateTime="2026-08-26T22:48:38.598601+00:00" ODMVersion="2.0" Originator="odmlib ODMBuilder demo" SourceSystem="odmlib" SourceSystemVersion="0.2.0" xmlns="http://www.cdisc.org/ns/odm/v2.0"><Study OID="S.VS20" StudyName="Vital Signs Study" ProtocolName="VS20-PROTOCOL"><Description><TranslatedText xml:lang="en" Type="text/plain">ODM 2.0 vital signs study-metadata example</TranslatedText></Description><MetaDataVersion OID="MDV.PRIOR" Name="Baseline v0.9" /><MetaDataVersion OID="MDV.001" Name="Vital Signs Metadata v1.0"><Description><TranslatedText xml:lang="en" Type="text/plain">First production ODM 2.0 metadata version</TranslatedText></Description><Include StudyOID="S.VS20" MetaDataVersionOID="MDV.PRIOR" /><Standards><Standard OID="STD.SDTMIG" Name="SDTMIG" Type="IG" Version="3.4" Status="Final" /></Standards><Protocol><Description><TranslatedText xml:lang="en" Type="text/plain">Screening followed by treatment visits</TranslatedText></Description><StudyStructure><Description><TranslatedText xml:lang="en" Type="text/plain">One arm, two epochs</TranslatedText></Description><Arm OID="ARM.A" Name="Treatment A"><Description><TranslatedText xml:lang="en" Type="text/plain">Single treatment arm</TranslatedText></Description><WorkflowRef WorkflowOID="WF.MAIN" /></Arm><Epoch OID="EP.SCREEN" Name="Screening" SequenceNumber="1" /><Epoch OID="EP.TREAT" Name="Treatment" SequenceNumber="2" /><WorkflowRef WorkflowOID="WF.MAIN" /></StudyStructure><Alias Context="ClinicalTrials.gov" Name="NCT00000000" /></Protocol><WorkflowDef OID="WF.MAIN" Name="Main Workflow"><Description><TranslatedText xml:lang="en" Type="text/plain">Screening to treatment workflow</TranslatedText></Description><WorkflowStart StartOID="SE.SCREEN" /><Transition OID="T.1" Name="Screen to Visit" SourceOID="SE.SCREEN" TargetOID="SE.VISIT" /><WorkflowEnd EndOID="SE.VISIT" /></WorkflowDef><StudyEventDef OID="SE.SCREEN" Name="Screening" Repeating="No" Type="Scheduled"><Description><TranslatedText xml:lang="en" Type="text/plain">Screening visit</TranslatedText></Description><ItemGroupRef ItemGroupOID="IG.FORM.VS" Mandatory="Yes" OrderNumber="1" /><WorkflowRef WorkflowOID="WF.MAIN" /><Alias Context="SDTM" Name="SCREENING" /></StudyEventDef><StudyEventDef OID="SE.VISIT" Name="Treatment Visit" Repeating="Yes" Type="Scheduled"><ItemGroupRef ItemGroupOID="IG.FORM.VS" Mandatory="Yes" OrderNumber="1" /></StudyEventDef><ItemGroupDef OID="IG.FORM.VS" Name="Vital Signs Form" Repeating="No" Type="Form" StandardOID="STD.SDTMIG"><Description><TranslatedText xml:lang="en" Type="text/plain">Vital Signs CRF form</TranslatedText></Description><ItemGroupRef ItemGroupOID="IG.SEC.VS" Mandatory="Yes" OrderNumber="1" /><Coding System="/mdr/bc/biomedicalconcepts/C82525" Code="C82525" SystemName="CDISC Biomedical Concept" /><Alias Context="formAnnotation" Name="DOMAIN = VS" /></ItemGroupDef><ItemGroupDef OID="IG.SEC.VS" Name="Vital Signs Section" Repeating="No" Type="Section"><Description><TranslatedText xml:lang="en" Type="text/plain">Vital Signs section</TranslatedText></Description><ItemGroupRef ItemGroupOID="IG.CON.SYSBP" Mandatory="Yes" OrderNumber="1" /><ItemGroupRef ItemGroupOID="IG.CON.WEIGHT" Mandatory="Yes" OrderNumber="2" /></ItemGroupDef><ItemGroupDef OID="IG.CON.SYSBP" Name="Systolic Blood Pressure (Concept)" Repeating="No" Type="Concept"><Description><TranslatedText xml:lang="en" Type="text/plain">Systolic blood pressure biomedical concept</TranslatedText></Description><ItemRef ItemOID="IT.VSDAT" Mandatory="No" OrderNumber="1" /><ItemRef ItemOID="IT.SYSBP" Mandatory="Yes" OrderNumber="2" UnitsItemOID="IT.SYSBPU" /><ItemRef ItemOID="IT.SYSBPU" Mandatory="Yes" OrderNumber="3" PreSpecifiedValue="mmHg" /><Coding System="/mdr/bc/biomedicalconcepts/C25298" Code="C25298" SystemName="CDISC Biomedical Concept" /><Coding System="/mdr/specializations/sdtm/datasetspecializations/SYSBP" Code="SYSBP" SystemName="CDISC SDTM Dataset Specialization" /><Origin Type="Collected"><Description><TranslatedText xml:lang="en" Type="text/plain">Collected on the CRF</TranslatedText></Description></Origin></ItemGroupDef><ItemGroupDef OID="IG.CON.WEIGHT" Name="Weight (Concept)" Repeating="No" Type="Concept"><ItemRef ItemOID="IT.VSDAT" Mandatory="No" OrderNumber="1" /><ItemRef ItemOID="IT.WEIGHT" Mandatory="Yes" OrderNumber="2" MethodOID="M.DERIVE" Role="RESULT" RoleCodeListOID="CL.NY" /></ItemGroupDef><ItemDef OID="IT.VSDAT" Name="VSDAT" DataType="date" Length="10"><Description><TranslatedText xml:lang="en" Type="text/plain">Date of assessment</TranslatedText></Description><Definition><TranslatedText xml:lang="en" Type="text/plain">The date the vital sign was measured</TranslatedText></Definition><Question><TranslatedText xml:lang="en" Type="text/plain">Date of Assessment</TranslatedText></Question><Prompt><TranslatedText xml:lang="en" Type="text/plain">Assessment date</TranslatedText></Prompt><Coding System="https://www.cdisc.org/standards/terminology" Code="C25164" SystemName="CDISC/NCI CT" /><Alias Context="SDTM" Name="VSDTC" /></ItemDef><ItemDef OID="IT.SYSBP" Name="SYSBP" DataType="integer" Length="3"><Description><TranslatedText xml:lang="en" Type="text/plain">Systolic blood pressure result</TranslatedText></Description><Question><TranslatedText xml:lang="en" Type="text/plain">Systolic Blood Pressure</TranslatedText></Question><CRFCompletionInstructions><TranslatedText xml:lang="en" Type="text/plain">Record the measured value</TranslatedText></CRFCompletionInstructions><ImplementationNotes><TranslatedText xml:lang="en" Type="text/plain">Integer mmHg, no decimals</TranslatedText></ImplementationNotes><CDISCNotes><TranslatedText xml:lang="en" Type="text/plain">Maps to VSORRES/VSSTRESN</TranslatedText></CDISCNotes><RangeCheck Comparator="GE" SoftHard="Soft"><CheckValue>0</CheckValue><ErrorMessage><TranslatedText xml:lang="en" Type="text/plain">Value must be &gt;= 0</TranslatedText></ErrorMessage></RangeCheck><Alias Context="SDTM" Name="VSORRES when VSTESTCD = SYSBP" /></ItemDef><ItemDef OID="IT.SYSBPU" Name="SYSBPU" DataType="text" Length="10"><Question><TranslatedText xml:lang="en" Type="text/plain">Systolic Blood Pressure Unit</TranslatedText></Question><CodeListRef CodeListOID="CL.UNIT" /><Alias Context="SDTM" Name="VSORRESU when VSTESTCD = SYSBP" /></ItemDef><ItemDef OID="IT.WEIGHT" Name="WEIGHT" DataType="decimal" Length="6"><Description><TranslatedText xml:lang="en" Type="text/plain">Body weight (derived to kg)</TranslatedText></Description><Prompt><TranslatedText xml:lang="en" Type="text/plain">Weight</TranslatedText></Prompt><Alias Context="SDTM" Name="VSORRES when VSTESTCD = WEIGHT" /></ItemDef><CodeList OID="CL.UNIT" Name="Units" DataType="text" StandardOID="STD.SDTMIG"><Description><TranslatedText xml:lang="en" Type="text/plain">Units of measure</TranslatedText></Description><CodeListItem CodedValue="mmHg"><Decode><TranslatedText xml:lang="en" Type="text/plain">mmHg</TranslatedText></Decode></CodeListItem><CodeListItem CodedValue="kg"><Decode><TranslatedText xml:lang="en" Type="text/plain">kilograms</TranslatedText></Decode></CodeListItem><CodeListItem CodedValue="mg"><Coding System="https://www.cdisc.org/standards/terminology" Code="C28253" SystemName="CDISC/NCI CT" /></CodeListItem><Coding System="https://www.cdisc.org/standards/terminology" Code="C66770" SystemName="CDISC/NCI CT" /></CodeList><CodeList OID="CL.NY" Name="No Yes Response" DataType="text"><CodeListItem CodedValue="N"><Decode><TranslatedText xml:lang="en" Type="text/plain">No</TranslatedText></Decode></CodeListItem><CodeListItem CodedValue="Y"><Decode><TranslatedText xml:lang="en" Type="text/plain">Yes</TranslatedText></Decode></CodeListItem></CodeList><MethodDef OID="M.DERIVE" Name="Derive Weight in kg" Type="Computation"><Description><TranslatedText xml:lang="en" Type="text/plain">Convert collected weight to kilograms</TranslatedText></Description><MethodSignature><Parameter Name="WEIGHT_LB" DataType="float" OrderNumber="1" /></MethodSignature></MethodDef></MetaDataVersion></Study></ODM>