<?xml version='1.0' encoding='utf-8'?>
<ODM FileOID="ODM.DEFINE21.TEST.001" AsOfDateTime="2021-09-06T13:16:45.495612+00:00"
     CreationDateTime="2021-09-06T13:16:45.495636+00:00" ODMVersion="1.3.2" FileType="Snapshot" Originator="Sam Hume"
     SourceSystem="odmlib" SourceSystemVersion="0.2" def:Context="Other" xmlns="http://www.cdisc.org/ns/odm/v1.3"
     xmlns:xs="http://www.w3.org/2001/XMLSchema-instance" xmlns:xml="http://www.w3.org/XML/1998/namespace"
     xmlns:xlink="http://www.w3.org/1999/xlink" xmlns:def="http://www.cdisc.org/ns/def/v2.1">
    <Study OID="ODM.CDISC01">
        <GlobalVariables>
            <StudyName>CDISC01</StudyName>
            <StudyDescription>CDISC Test Study</StudyDescription>
            <ProtocolName>CDISC01</ProtocolName>
        </GlobalVariables>
        <MetaDataVersion OID="MDV.CDISC01" Name="MDV CDISC01" Description="Data Definitions for CDISC01"
                         def:DefineVersion="2.1.0">
            <def:Standards>
                <def:Standard OID="STD.1" Name="SDTMIG" Type="IG" Version="3.1.2" Status="Final"
                              def:CommentOID="COM.STD1"/>
                <def:Standard OID="STD.2" Name="CDISC/NCI" Type="CT" Version="2015-12-18" Status="Final"
                              def:CommentOID="COM.CT1"/>
            </def:Standards>
            <def:AnnotatedCRF>
                <def:DocumentRef leafID="LF.blankcrf"/>
            </def:AnnotatedCRF>
            <def:SupplementalDoc>
                <def:DocumentRef leafID="LF.ReviewersGuide"/>
                <def:DocumentRef leafID="LF.ComplexAlgorithms"/>
            </def:SupplementalDoc>
            <def:ValueListDef OID="VL.DA.DAORRES">
                <ItemRef ItemOID="IT.DA.DATESTCD.DISPAMT" Mandatory="Yes" OrderNumber="1">
                    <def:WhereClauseRef WhereClauseOID="WC.DA.DATESTCD.DISPAMT"/>
                </ItemRef>
                <ItemRef ItemOID="IT.DA.DATESTCD.RETAMT" Mandatory="No" OrderNumber="2">
                    <def:WhereClauseRef WhereClauseOID="WC.DA.DATESTCD.RETAMT"/>
                </ItemRef>
            </def:ValueListDef>
            <def:ValueListDef OID="VL.EG.EGORRES">
                <ItemRef ItemOID="IT.EG.EGTESTCD.INTP" Mandatory="No" OrderNumber="1">
                    <def:WhereClauseRef WhereClauseOID="WC.EG.EGTESTCD.INTP"/>
                </ItemRef>
                <ItemRef ItemOID="IT.EG.EGTESTCD.PRMEAN" Mandatory="No" OrderNumber="2">
                    <def:WhereClauseRef WhereClauseOID="WC.EG.EGTESTCD.PRMEAN"/>
                </ItemRef>
                <ItemRef ItemOID="IT.EG.EGTESTCD.QRSDUR" Mandatory="No" OrderNumber="3">
                    <def:WhereClauseRef WhereClauseOID="WC.EG.EGTESTCD.QRSDUR"/>
                </ItemRef>
                <ItemRef ItemOID="IT.EG.EGTESTCD.QTMEAN" Mandatory="No" OrderNumber="4">
                    <def:WhereClauseRef WhereClauseOID="WC.EG.EGTESTCD.QTMEAN"/>
                </ItemRef>
                <ItemRef ItemOID="IT.EG.EGTESTCD.VRMEAN" Mandatory="No" OrderNumber="5">
                    <def:WhereClauseRef WhereClauseOID="WC.EG.EGTESTCD.VRMEAN"/>
                </ItemRef>
            </def:ValueListDef>
            <def:ValueListDef OID="VL.EG.EGSTRESC">
                <ItemRef ItemOID="IT.EG.EGTESTCD.QTCB" Mandatory="Yes" OrderNumber="1" MethodOID="MT.QTCB">
                    <def:WhereClauseRef WhereClauseOID="WC.EG.EGTESTCD.QTCB"/>
                </ItemRef>
                <ItemRef ItemOID="IT.EG.EGTESTCD.QTCF" Mandatory="Yes" OrderNumber="2" MethodOID="MT.QTCF">
                    <def:WhereClauseRef WhereClauseOID="WC.EG.EGTESTCD.QTCF"/>
                </ItemRef>
            </def:ValueListDef>
            <def:ValueListDef OID="VL.IE.IEORRES">
                <ItemRef ItemOID="IT.IE.IETESTCD.EXCL01" Mandatory="No" OrderNumber="1">
                    <def:WhereClauseRef WhereClauseOID="WC.IE.IETESTCD.EXCL01"/>
                </ItemRef>
                <ItemRef ItemOID="IT.IE.IETESTCD.EXCL02" Mandatory="No" OrderNumber="2">
                    <def:WhereClauseRef WhereClauseOID="WC.IE.IETESTCD.EXCL02"/>
                </ItemRef>
                <ItemRef ItemOID="IT.IE.IETESTCD.EXCL03" Mandatory="No" OrderNumber="3">
                    <def:WhereClauseRef WhereClauseOID="WC.IE.IETESTCD.EXCL03"/>
                </ItemRef>
                <ItemRef ItemOID="IT.IE.IETESTCD.INCL01" Mandatory="No" OrderNumber="4">
                    <def:WhereClauseRef WhereClauseOID="WC.IE.IETESTCD.INCL01"/>
                </ItemRef>
                <ItemRef ItemOID="IT.IE.IETESTCD.INCL02" Mandatory="No" OrderNumber="5">
                    <def:WhereClauseRef WhereClauseOID="WC.IE.IETESTCD.INCL02"/>
                </ItemRef>
                <ItemRef ItemOID="IT.IE.IETESTCD.INCL03" Mandatory="No" OrderNumber="6">
                    <def:WhereClauseRef WhereClauseOID="WC.IE.IETESTCD.INCL03"/>
                </ItemRef>
            </def:ValueListDef>
            <def:ValueListDef OID="VL.LB.LBORRES">
                <ItemRef ItemOID="IT.LB.LBTESTCD.BILI.LBCAT.CHEMISTRY.LBSPEC.BLOOD" Mandatory="No" OrderNumber="1">
                    <def:WhereClauseRef WhereClauseOID="WC.LB.LBTESTCD.BILI.LBCAT.CHEMISTRY.LBSPEC.BLOOD"/>
                </ItemRef>
                <ItemRef ItemOID="IT.LB.LBTESTCD.BUN.LBCAT.CHEMISTRY.LBSPEC.BLOOD" Mandatory="No" OrderNumber="2">
                    <def:WhereClauseRef WhereClauseOID="WC.LB.LBTESTCD.BUN.LBCAT.CHEMISTRY.LBSPEC.BLOOD"/>
                </ItemRef>
                <ItemRef ItemOID="IT.LB.LBTESTCD.GLUC.LBCAT.CHEMISTRY.LBSPEC.BLOOD" Mandatory="No" OrderNumber="3">
                    <def:WhereClauseRef WhereClauseOID="WC.LB.LBTESTCD.GLUC.LBCAT.CHEMISTRY.LBSPEC.BLOOD"/>
                </ItemRef>
                <ItemRef ItemOID="IT.LB.LBTESTCD.GLUC.LBCAT.URINALYSIS.LBSPEC.URINE.LBMETHOD.DIPSTICK" Mandatory="No"
                         OrderNumber="4">
                    <def:WhereClauseRef
                            WhereClauseOID="WC.LB.LBTESTCD.GLUC.LBCAT.URINALYSIS.LBSPEC.URINE.LBMETHOD.DIPSTICK"/>
                </ItemRef>
                <ItemRef ItemOID="IT.LB.LBTESTCD.GLUC.LBCAT.URINALYSIS.LBSPEC.URINE.LBMETHOD.QUANT" Mandatory="No"
                         OrderNumber="5">
                    <def:WhereClauseRef
                            WhereClauseOID="WC.LB.LBTESTCD.GLUC.LBCAT.URINALYSIS.LBSPEC.URINE.LBMETHOD.QUANT"/>
                </ItemRef>
                <ItemRef ItemOID="IT.LB.LBTESTCD.HCT.LBCAT.HEMATOLOGY.LBSPEC.BLOOD" Mandatory="No" OrderNumber="6">
                    <def:WhereClauseRef WhereClauseOID="WC.LB.LBTESTCD.HCT.LBCAT.HEMATOLOGY.LBSPEC.BLOOD"/>
                </ItemRef>
                <ItemRef ItemOID="IT.LB.LBTESTCD.HGB.LBCAT.HEMATOLOGY.LBSPEC.BLOOD" Mandatory="No" OrderNumber="7">
                    <def:WhereClauseRef WhereClauseOID="WC.LB.LBTESTCD.HGB.LBCAT.HEMATOLOGY.LBSPEC.BLOOD"/>
                </ItemRef>
                <ItemRef ItemOID="IT.LB.LBTESTCD.LYM.LBCAT.HEMATOLOGY.LBSPEC.BLOOD" Mandatory="No" OrderNumber="8">
                    <def:WhereClauseRef WhereClauseOID="WC.LB.LBTESTCD.LYM.LBCAT.HEMATOLOGY.LBSPEC.BLOOD"/>
                </ItemRef>
                <ItemRef ItemOID="IT.LB.LBTESTCD.OCCBLD.LBCAT.URINALYSIS.LBSPEC.URINE" Mandatory="No" OrderNumber="9">
                    <def:WhereClauseRef WhereClauseOID="WC.LB.LBTESTCD.OCCBLD.LBCAT.URINALYSIS.LBSPEC.URINE"/>
                </ItemRef>
                <ItemRef ItemOID="IT.LB.LBTESTCD.PH.LBCAT.URINALYSIS.LBSPEC.URINE" Mandatory="No" OrderNumber="10">
                    <def:WhereClauseRef WhereClauseOID="WC.LB.LBTESTCD.PH.LBCAT.URINALYSIS.LBSPEC.URINE"/>
                </ItemRef>
                <ItemRef ItemOID="IT.LB.LBTESTCD.VITB12.LBCAT.CHEMISTRY.LBSPEC.SERUM" Mandatory="No" OrderNumber="11">
                    <def:WhereClauseRef WhereClauseOID="WC.LB.LBTESTCD.VITB12.LBCAT.CHEMISTRY.LBSPEC.SERUM"/>
                </ItemRef>
                <ItemRef ItemOID="IT.LB.LBTESTCD.VITB9.LBCAT.CHEMISTRY.LBSPEC.BLOOD" Mandatory="No" OrderNumber="12">
                    <def:WhereClauseRef WhereClauseOID="WC.LB.LBTESTCD.VITB9.LBCAT.CHEMISTRY.LBSPEC.BLOOD"/>
                </ItemRef>
            </def:ValueListDef>
            <def:ValueListDef OID="VL.PE.PEORRES">
                <ItemRef ItemOID="IT.PE.PETESTCD.PE01" Mandatory="Yes" OrderNumber="1">
                    <def:WhereClauseRef WhereClauseOID="WC.PE.PETESTCD.PE01"/>
                </ItemRef>
                <ItemRef ItemOID="IT.PE.PETESTCD.PE02" Mandatory="Yes" OrderNumber="2">
                    <def:WhereClauseRef WhereClauseOID="WC.PE.PETESTCD.PE02"/>
                </ItemRef>
                <ItemRef ItemOID="IT.PE.PETESTCD.PE03" Mandatory="Yes" OrderNumber="3">
                    <def:WhereClauseRef WhereClauseOID="WC.PE.PETESTCD.PE03"/>
                </ItemRef>
                <ItemRef ItemOID="IT.PE.PETESTCD.PE04" Mandatory="Yes" OrderNumber="4">
                    <def:WhereClauseRef WhereClauseOID="WC.PE.PETESTCD.PE04"/>
                </ItemRef>
                <ItemRef ItemOID="IT.PE.PETESTCD.PE05" Mandatory="Yes" OrderNumber="5">
                    <def:WhereClauseRef WhereClauseOID="WC.PE.PETESTCD.PE05"/>
                </ItemRef>
                <ItemRef ItemOID="IT.PE.PETESTCD.PE06" Mandatory="Yes" OrderNumber="6">
                    <def:WhereClauseRef WhereClauseOID="WC.PE.PETESTCD.PE06"/>
                </ItemRef>
                <ItemRef ItemOID="IT.PE.PETESTCD.PE07" Mandatory="Yes" OrderNumber="7">
                    <def:WhereClauseRef WhereClauseOID="WC.PE.PETESTCD.PE07"/>
                </ItemRef>
                <ItemRef ItemOID="IT.PE.PETESTCD.PE08" Mandatory="Yes" OrderNumber="8">
                    <def:WhereClauseRef WhereClauseOID="WC.PE.PETESTCD.PE08"/>
                </ItemRef>
                <ItemRef ItemOID="IT.PE.PETESTCD.PE09" Mandatory="No" OrderNumber="9">
                    <def:WhereClauseRef WhereClauseOID="WC.PE.PETESTCD.PE09"/>
                </ItemRef>
            </def:ValueListDef>
            <def:ValueListDef OID="VL.SC.SCORRES">
                <ItemRef ItemOID="IT.SC.SCTESTCD.EDLEVEL" Mandatory="No" OrderNumber="1">
                    <def:WhereClauseRef WhereClauseOID="WC.SC.SCTESTCD.EDLEVEL"/>
                </ItemRef>
                <ItemRef ItemOID="IT.SC.SCTESTCD.MARISTAT" Mandatory="No" OrderNumber="2">
                    <def:WhereClauseRef WhereClauseOID="WC.SC.SCTESTCD.MARISTAT"/>
                </ItemRef>
                <ItemRef ItemOID="IT.SC.SCTESTCD.SUBJINIT" Mandatory="No" OrderNumber="3">
                    <def:WhereClauseRef WhereClauseOID="WC.SC.SCTESTCD.SUBJINIT"/>
                </ItemRef>
            </def:ValueListDef>
            <def:ValueListDef OID="VL.SUPPAE.QVAL">
                <ItemRef ItemOID="IT.SUPPAE.QNAM.AETRTEM" Mandatory="No" OrderNumber="1" MethodOID="MT.AETRTEM">
                    <def:WhereClauseRef WhereClauseOID="WC.SUPPAE.QNAM.AETRTEM"/>
                </ItemRef>
                <ItemRef ItemOID="IT.SUPPAE.QNAM.HLGT" Mandatory="No" OrderNumber="2">
                    <def:WhereClauseRef WhereClauseOID="WC.SUPPAE.QNAM.HLGT"/>
                </ItemRef>
                <ItemRef ItemOID="IT.SUPPAE.QNAM.HLT" Mandatory="No" OrderNumber="3">
                    <def:WhereClauseRef WhereClauseOID="WC.SUPPAE.QNAM.HLT"/>
                </ItemRef>
                <ItemRef ItemOID="IT.SUPPAE.QNAM.LLT" Mandatory="No" OrderNumber="4">
                    <def:WhereClauseRef WhereClauseOID="WC.SUPPAE.QNAM.LLT"/>
                </ItemRef>
            </def:ValueListDef>
            <def:ValueListDef OID="VL.SUPPCM.QVAL">
                <ItemRef ItemOID="IT.SUPPCM.QNAM.ATC4CODE" Mandatory="No" OrderNumber="1">
                    <def:WhereClauseRef WhereClauseOID="WC.SUPPCM.QNAM.ATC4CODE"/>
                </ItemRef>
                <ItemRef ItemOID="IT.SUPPCM.QNAM.ATC4TERM" Mandatory="No" OrderNumber="2">
                    <def:WhereClauseRef WhereClauseOID="WC.SUPPCM.QNAM.ATC4TERM"/>
                </ItemRef>
                <ItemRef ItemOID="IT.SUPPCM.QNAM.CPREFCD" Mandatory="No" OrderNumber="3">
                    <def:WhereClauseRef WhereClauseOID="WC.SUPPCM.QNAM.CPREFCD"/>
                </ItemRef>
                <ItemRef ItemOID="IT.SUPPCM.QNAM.PDDREAS" Mandatory="No" OrderNumber="4">
                    <def:WhereClauseRef WhereClauseOID="WC.SUPPCM.QNAM.PDDREAS"/>
                </ItemRef>
                <ItemRef ItemOID="IT.SUPPCM.QNAM.PDRESP" Mandatory="No" OrderNumber="5">
                    <def:WhereClauseRef WhereClauseOID="WC.SUPPCM.QNAM.PDRESP"/>
                </ItemRef>
            </def:ValueListDef>
            <def:ValueListDef OID="VL.SUPPDM.QVAL">
                <ItemRef ItemOID="IT.SUPPDM.QNAM.RACE1" Mandatory="No" OrderNumber="1">
                    <def:WhereClauseRef WhereClauseOID="WC.SUPPDM.QNAM.RACE1"/>
                </ItemRef>
                <ItemRef ItemOID="IT.SUPPDM.QNAM.RACE2" Mandatory="No" OrderNumber="2">
                    <def:WhereClauseRef WhereClauseOID="WC.SUPPDM.QNAM.RACE2"/>
                </ItemRef>
                <ItemRef ItemOID="IT.SUPPDM.QNAM.RACE3" Mandatory="No" OrderNumber="3">
                    <def:WhereClauseRef WhereClauseOID="WC.SUPPDM.QNAM.RACE3"/>
                </ItemRef>
                <ItemRef ItemOID="IT.SUPPDM.QNAM.RACEOTH" Mandatory="No" OrderNumber="4">
                    <def:WhereClauseRef WhereClauseOID="WC.SUPPDM.QNAM.RACEOTH"/>
                </ItemRef>
                <ItemRef ItemOID="IT.SUPPDM.QNAM.RAND" Mandatory="No" OrderNumber="5">
                    <def:WhereClauseRef WhereClauseOID="WC.SUPPDM.QNAM.RAND"/>
                </ItemRef>
                <ItemRef ItemOID="IT.SUPPDM.QNAM.RANDNO" Mandatory="No" OrderNumber="6">
                    <def:WhereClauseRef WhereClauseOID="WC.SUPPDM.QNAM.RANDNO"/>
                </ItemRef>
                <ItemRef ItemOID="IT.SUPPDM.QNAM.SAFETY" Mandatory="No" OrderNumber="7" MethodOID="MT.SAFETY">
                    <def:WhereClauseRef WhereClauseOID="WC.SUPPDM.QNAM.SAFETY"/>
                </ItemRef>
            </def:ValueListDef>
            <def:ValueListDef OID="VL.SUPPEG.QVAL">
                <ItemRef ItemOID="IT.SUPPEG.QNAM.EGCLSIG" Mandatory="No" OrderNumber="1">
                    <def:WhereClauseRef WhereClauseOID="WC.SUPPEG.QNAM.EGCLSIG"/>
                </ItemRef>
            </def:ValueListDef>
            <def:ValueListDef OID="VL.SUPPEX.QVAL">
                <ItemRef ItemOID="IT.SUPPEX.QNAM.SMNO" Mandatory="No" OrderNumber="1">
                    <def:WhereClauseRef WhereClauseOID="WC.SUPPEX.QNAM.SMNO"/>
                </ItemRef>
            </def:ValueListDef>
            <def:ValueListDef OID="VL.SUPPLB.QVAL">
                <ItemRef ItemOID="IT.SUPPLB.QNAM.LBCLSIG" Mandatory="No" OrderNumber="1" MethodOID="MT.CLSIG">
                    <def:WhereClauseRef WhereClauseOID="WC.SUPPLB.QNAM.LBCLSIG"/>
                </ItemRef>
            </def:ValueListDef>
            <def:ValueListDef OID="VL.SUPPQSMM.QVAL">
                <ItemRef ItemOID="IT.SUPPQS.QNAM.RTRINIT" Mandatory="No" OrderNumber="1">
                    <def:WhereClauseRef WhereClauseOID="WC.SUPPQS.QNAM.RTRINIT"/>
                </ItemRef>
            </def:ValueListDef>
            <def:ValueListDef OID="VL.SUPPVS.QVAL">
                <ItemRef ItemOID="IT.SUPPVS.QNAM.VSCLSIG" Mandatory="No" OrderNumber="1" MethodOID="MT.CLSIG">
                    <def:WhereClauseRef WhereClauseOID="WC.SUPPVS.QNAM.VSCLSIG"/>
                </ItemRef>
            </def:ValueListDef>
            <def:ValueListDef OID="VL.TS.TSVAL">
                <ItemRef ItemOID="IT.TS.TSPARMCD.ADDON" Mandatory="No" OrderNumber="1">
                    <def:WhereClauseRef WhereClauseOID="WC.TS.TSPARMCD.ADDON"/>
                </ItemRef>
                <ItemRef ItemOID="IT.TS.TSPARMCD.AGEMAX" Mandatory="No" OrderNumber="2">
                    <def:WhereClauseRef WhereClauseOID="WC.TS.TSPARMCD.AGEMAX"/>
                </ItemRef>
                <ItemRef ItemOID="IT.TS.TSPARMCD.AGEMIN" Mandatory="No" OrderNumber="3">
                    <def:WhereClauseRef WhereClauseOID="WC.TS.TSPARMCD.AGEMIN"/>
                </ItemRef>
                <ItemRef ItemOID="IT.TS.TSPARMCD.AGESPAN" Mandatory="No" OrderNumber="4">
                    <def:WhereClauseRef WhereClauseOID="WC.TS.TSPARMCD.AGESPAN"/>
                </ItemRef>
                <ItemRef ItemOID="IT.TS.TSPARMCD.AGEU" Mandatory="No" OrderNumber="5">
                    <def:WhereClauseRef WhereClauseOID="WC.TS.TSPARMCD.AGEU"/>
                </ItemRef>
                <ItemRef ItemOID="IT.TS.TSPARMCD.DOSE" Mandatory="No" OrderNumber="6">
                    <def:WhereClauseRef WhereClauseOID="WC.TS.TSPARMCD.DOSE"/>
                </ItemRef>
                <ItemRef ItemOID="IT.TS.TSPARMCD.DOSFRQ" Mandatory="No" OrderNumber="7">
                    <def:WhereClauseRef WhereClauseOID="WC.TS.TSPARMCD.DOSFRQ"/>
                </ItemRef>
                <ItemRef ItemOID="IT.TS.TSPARMCD.DOSU" Mandatory="No" OrderNumber="8">
                    <def:WhereClauseRef WhereClauseOID="WC.TS.TSPARMCD.DOSU"/>
                </ItemRef>
                <ItemRef ItemOID="IT.TS.TSPARMCD.LENGTH" Mandatory="No" OrderNumber="9">
                    <def:WhereClauseRef WhereClauseOID="WC.TS.TSPARMCD.LENGTH"/>
                </ItemRef>
                <ItemRef ItemOID="IT.TS.TSPARMCD.OBJPRIM" Mandatory="No" OrderNumber="10">
                    <def:WhereClauseRef WhereClauseOID="WC.TS.TSPARMCD.OBJPRIM"/>
                </ItemRef>
                <ItemRef ItemOID="IT.TS.TSPARMCD.OBJSEC" Mandatory="No" OrderNumber="11">
                    <def:WhereClauseRef WhereClauseOID="WC.TS.TSPARMCD.OBJSEC"/>
                </ItemRef>
                <ItemRef ItemOID="IT.TS.TSPARMCD.PLANSUB" Mandatory="No" OrderNumber="12">
                    <def:WhereClauseRef WhereClauseOID="WC.TS.TSPARMCD.PLANSUB"/>
                </ItemRef>
                <ItemRef ItemOID="IT.TS.TSPARMCD.RANDOM" Mandatory="No" OrderNumber="13">
                    <def:WhereClauseRef WhereClauseOID="WC.TS.TSPARMCD.RANDOM"/>
                </ItemRef>
                <ItemRef ItemOID="IT.TS.TSPARMCD.ROUTE" Mandatory="No" OrderNumber="14">
                    <def:WhereClauseRef WhereClauseOID="WC.TS.TSPARMCD.ROUTE"/>
                </ItemRef>
                <ItemRef ItemOID="IT.TS.TSPARMCD.SEXPOP" Mandatory="No" OrderNumber="15">
                    <def:WhereClauseRef WhereClauseOID="WC.TS.TSPARMCD.SEXPOP"/>
                </ItemRef>
                <ItemRef ItemOID="IT.TS.TSPARMCD.SPONSOR" Mandatory="No" OrderNumber="16">
                    <def:WhereClauseRef WhereClauseOID="WC.TS.TSPARMCD.SPONSOR"/>
                </ItemRef>
                <ItemRef ItemOID="IT.TS.TSPARMCD.TBLIND" Mandatory="No" OrderNumber="17">
                    <def:WhereClauseRef WhereClauseOID="WC.TS.TSPARMCD.TBLIND"/>
                </ItemRef>
                <ItemRef ItemOID="IT.TS.TSPARMCD.TCNTRL" Mandatory="No" OrderNumber="18">
                    <def:WhereClauseRef WhereClauseOID="WC.TS.TSPARMCD.TCNTRL"/>
                </ItemRef>
                <ItemRef ItemOID="IT.TS.TSPARMCD.TINDTP" Mandatory="No" OrderNumber="19">
                    <def:WhereClauseRef WhereClauseOID="WC.TS.TSPARMCD.TINDTP"/>
                </ItemRef>
                <ItemRef ItemOID="IT.TS.TSPARMCD.TITLE" Mandatory="No" OrderNumber="20">
                    <def:WhereClauseRef WhereClauseOID="WC.TS.TSPARMCD.TITLE"/>
                </ItemRef>
                <ItemRef ItemOID="IT.TS.TSPARMCD.TPHASE" Mandatory="No" OrderNumber="21">
                    <def:WhereClauseRef WhereClauseOID="WC.TS.TSPARMCD.TPHASE"/>
                </ItemRef>
                <ItemRef ItemOID="IT.TS.TSPARMCD.TRT" Mandatory="No" OrderNumber="22">
                    <def:WhereClauseRef WhereClauseOID="WC.TS.TSPARMCD.TRT"/>
                </ItemRef>
                <ItemRef ItemOID="IT.TS.TSPARMCD.TTYPE" Mandatory="No" OrderNumber="23">
                    <def:WhereClauseRef WhereClauseOID="WC.TS.TSPARMCD.TTYPE"/>
                </ItemRef>
            </def:ValueListDef>
            <def:ValueListDef OID="VL.VS.VSORRES">
                <ItemRef ItemOID="IT.VS.VSTESTCD.DIABP" Mandatory="Yes" OrderNumber="1">
                    <def:WhereClauseRef WhereClauseOID="WC.VS.VSTESTCD.DIABP"/>
                </ItemRef>
                <ItemRef ItemOID="IT.VS.VSTESTCD.FRMSIZE" Mandatory="No" OrderNumber="2">
                    <def:WhereClauseRef WhereClauseOID="WC.VS.VSTESTCD.FRMSIZE"/>
                </ItemRef>
                <ItemRef ItemOID="IT.VS.VSTESTCD.HEIGHT" Mandatory="Yes" OrderNumber="3">
                    <def:WhereClauseRef WhereClauseOID="WC.VS.VSTESTCD.HEIGHT"/>
                </ItemRef>
                <ItemRef ItemOID="IT.VS.VSTESTCD.PULSE" Mandatory="No" OrderNumber="4">
                    <def:WhereClauseRef WhereClauseOID="WC.VS.VSTESTCD.PULSE"/>
                </ItemRef>
                <ItemRef ItemOID="IT.VS.VSTESTCD.SYSBP" Mandatory="Yes" OrderNumber="5">
                    <def:WhereClauseRef WhereClauseOID="WC.VS.VSTESTCD.SYSBP"/>
                </ItemRef>
                <ItemRef ItemOID="IT.VS.VSTESTCD.WEIGHT" Mandatory="Yes" OrderNumber="6">
                    <def:WhereClauseRef WhereClauseOID="WC.VS.VSTESTCD.WEIGHT"/>
                </ItemRef>
            </def:ValueListDef>
            <def:ValueListDef OID="VL.VS.VSORRESU">
                <ItemRef ItemOID="IT.VS.VSTESTCD.HEIGHT.[DM].COUNTRY.CMETRIC" Mandatory="Yes" OrderNumber="1">
                    <def:WhereClauseRef WhereClauseOID="WC.VS.VSTESTCD.HEIGHT.[DM].COUNTRY.CMETRIC"/>
                </ItemRef>
                <ItemRef ItemOID="IT.VS.VSTESTCD.HEIGHT.[DM].COUNTRY.CNMETRIC" Mandatory="Yes" OrderNumber="2">
                    <def:WhereClauseRef WhereClauseOID="WC.VS.VSTESTCD.HEIGHT.[DM].COUNTRY.CNMETRIC"/>
                </ItemRef>
                <ItemRef ItemOID="IT.VS.VSTESTCD.WEIGHT.[DM].COUNTRY.CMETRIC" Mandatory="Yes" OrderNumber="3">
                    <def:WhereClauseRef WhereClauseOID="WC.VS.VSTESTCD.WEIGHT.[DM].COUNTRY.CMETRIC"/>
                </ItemRef>
                <ItemRef ItemOID="IT.VS.VSTESTCD.WEIGHT.[DM].COUNTRY.CNMETRIC" Mandatory="Yes" OrderNumber="4">
                    <def:WhereClauseRef WhereClauseOID="WC.VS.VSTESTCD.WEIGHT.[DM].COUNTRY.CNMETRIC"/>
                </ItemRef>
            </def:ValueListDef>
            <def:WhereClauseDef OID="WC.DA.DATESTCD.DISPAMT">
                <RangeCheck SoftHard="Soft" def:ItemOID="IT.DA.DATESTCD" Comparator="EQ">
                    <CheckValue>DISPAMT</CheckValue>
                </RangeCheck>
            </def:WhereClauseDef>
            <def:WhereClauseDef OID="WC.DA.DATESTCD.RETAMT">
                <RangeCheck SoftHard="Soft" def:ItemOID="IT.DA.DATESTCD" Comparator="EQ">
                    <CheckValue>RETAMT</CheckValue>
                </RangeCheck>
            </def:WhereClauseDef>
            <def:WhereClauseDef OID="WC.EG.EGTESTCD.INTP">
                <RangeCheck SoftHard="Soft" def:ItemOID="IT.EG.EGTESTCD" Comparator="EQ">
                    <CheckValue>INTP</CheckValue>
                </RangeCheck>
            </def:WhereClauseDef>
            <def:WhereClauseDef OID="WC.EG.EGTESTCD.PRMEAN">
                <RangeCheck SoftHard="Soft" def:ItemOID="IT.EG.EGTESTCD" Comparator="EQ">
                    <CheckValue>PRMEAN</CheckValue>
                </RangeCheck>
            </def:WhereClauseDef>
            <def:WhereClauseDef OID="WC.EG.EGTESTCD.QRSDUR">
                <RangeCheck SoftHard="Soft" def:ItemOID="IT.EG.EGTESTCD" Comparator="EQ">
                    <CheckValue>QRSDUR</CheckValue>
                </RangeCheck>
            </def:WhereClauseDef>
            <def:WhereClauseDef OID="WC.EG.EGTESTCD.QTMEAN">
                <RangeCheck SoftHard="Soft" def:ItemOID="IT.EG.EGTESTCD" Comparator="EQ">
                    <CheckValue>QTMEAN</CheckValue>
                </RangeCheck>
            </def:WhereClauseDef>
            <def:WhereClauseDef OID="WC.EG.EGTESTCD.VRMEAN">
                <RangeCheck SoftHard="Soft" def:ItemOID="IT.EG.EGTESTCD" Comparator="EQ">
                    <CheckValue>VRMEAN</CheckValue>
                </RangeCheck>
            </def:WhereClauseDef>
            <def:WhereClauseDef OID="WC.EG.EGTESTCD.QTCB">
                <RangeCheck SoftHard="Soft" def:ItemOID="IT.EG.EGTESTCD" Comparator="EQ">
                    <CheckValue>QTCB</CheckValue>
                </RangeCheck>
            </def:WhereClauseDef>
            <def:WhereClauseDef OID="WC.EG.EGTESTCD.QTCF">
                <RangeCheck SoftHard="Soft" def:ItemOID="IT.EG.EGTESTCD" Comparator="EQ">
                    <CheckValue>QTCF</CheckValue>
                </RangeCheck>
            </def:WhereClauseDef>
            <def:WhereClauseDef OID="WC.IE.IETESTCD.EXCL01">
                <RangeCheck SoftHard="Soft" def:ItemOID="IT.IE.IETESTCD" Comparator="EQ">
                    <CheckValue>EXCL01</CheckValue>
                </RangeCheck>
            </def:WhereClauseDef>
            <def:WhereClauseDef OID="WC.IE.IETESTCD.EXCL02">
                <RangeCheck SoftHard="Soft" def:ItemOID="IT.IE.IETESTCD" Comparator="EQ">
                    <CheckValue>EXCL02</CheckValue>
                </RangeCheck>
            </def:WhereClauseDef>
            <def:WhereClauseDef OID="WC.IE.IETESTCD.EXCL03">
                <RangeCheck SoftHard="Soft" def:ItemOID="IT.IE.IETESTCD" Comparator="EQ">
                    <CheckValue>EXCL03</CheckValue>
                </RangeCheck>
            </def:WhereClauseDef>
            <def:WhereClauseDef OID="WC.IE.IETESTCD.INCL01">
                <RangeCheck SoftHard="Soft" def:ItemOID="IT.IE.IETESTCD" Comparator="EQ">
                    <CheckValue>INCL01</CheckValue>
                </RangeCheck>
            </def:WhereClauseDef>
            <def:WhereClauseDef OID="WC.IE.IETESTCD.INCL02">
                <RangeCheck SoftHard="Soft" def:ItemOID="IT.IE.IETESTCD" Comparator="EQ">
                    <CheckValue>INCL02</CheckValue>
                </RangeCheck>
            </def:WhereClauseDef>
            <def:WhereClauseDef OID="WC.IE.IETESTCD.INCL03">
                <RangeCheck SoftHard="Soft" def:ItemOID="IT.IE.IETESTCD" Comparator="EQ">
                    <CheckValue>INCL03</CheckValue>
                </RangeCheck>
            </def:WhereClauseDef>
            <def:WhereClauseDef OID="WC.LB.LBTESTCD.BILI.LBCAT.CHEMISTRY.LBSPEC.BLOOD">
                <RangeCheck SoftHard="Soft" def:ItemOID="IT.LB.LBTESTCD" Comparator="EQ">
                    <CheckValue>BILI</CheckValue>
                </RangeCheck>
                <RangeCheck SoftHard="Soft" def:ItemOID="IT.LB.LBCAT" Comparator="EQ">
                    <CheckValue>CHEMISTRY</CheckValue>
                </RangeCheck>
                <RangeCheck SoftHard="Soft" def:ItemOID="IT.LB.LBSPEC" Comparator="EQ">
                    <CheckValue>BLOOD</CheckValue>
                </RangeCheck>
            </def:WhereClauseDef>
            <def:WhereClauseDef OID="WC.LB.LBTESTCD.BUN.LBCAT.CHEMISTRY.LBSPEC.BLOOD">
                <RangeCheck SoftHard="Soft" def:ItemOID="IT.LB.LBTESTCD" Comparator="EQ">
                    <CheckValue>BUN</CheckValue>
                </RangeCheck>
                <RangeCheck SoftHard="Soft" def:ItemOID="IT.LB.LBCAT" Comparator="EQ">
                    <CheckValue>CHEMISTRY</CheckValue>
                </RangeCheck>
                <RangeCheck SoftHard="Soft" def:ItemOID="IT.LB.LBSPEC" Comparator="EQ">
                    <CheckValue>BLOOD</CheckValue>
                </RangeCheck>
            </def:WhereClauseDef>
            <def:WhereClauseDef OID="WC.LB.LBTESTCD.GLUC.LBCAT.CHEMISTRY.LBSPEC.BLOOD">
                <RangeCheck SoftHard="Soft" def:ItemOID="IT.LB.LBTESTCD" Comparator="EQ">
                    <CheckValue>GLUC</CheckValue>
                </RangeCheck>
                <RangeCheck SoftHard="Soft" def:ItemOID="IT.LB.LBCAT" Comparator="EQ">
                    <CheckValue>CHEMISTRY</CheckValue>
                </RangeCheck>
                <RangeCheck SoftHard="Soft" def:ItemOID="IT.LB.LBSPEC" Comparator="EQ">
                    <CheckValue>BLOOD</CheckValue>
                </RangeCheck>
            </def:WhereClauseDef>
            <def:WhereClauseDef OID="WC.LB.LBTESTCD.GLUC.LBCAT.URINALYSIS.LBSPEC.URINE.LBMETHOD.DIPSTICK">
                <RangeCheck SoftHard="Soft" def:ItemOID="IT.LB.LBTESTCD" Comparator="EQ">
                    <CheckValue>GLUC</CheckValue>
                </RangeCheck>
                <RangeCheck SoftHard="Soft" def:ItemOID="IT.LB.LBCAT" Comparator="EQ">
                    <CheckValue>URINALYSIS</CheckValue>
                </RangeCheck>
                <RangeCheck SoftHard="Soft" def:ItemOID="IT.LB.LBSPEC" Comparator="EQ">
                    <CheckValue>URINE</CheckValue>
                </RangeCheck>
                <RangeCheck SoftHard="Soft" def:ItemOID="IT.LB.LBMETHOD" Comparator="EQ">
                    <CheckValue>DIPSTICK</CheckValue>
                </RangeCheck>
            </def:WhereClauseDef>
            <def:WhereClauseDef OID="WC.LB.LBTESTCD.GLUC.LBCAT.URINALYSIS.LBSPEC.URINE.LBMETHOD.QUANT">
                <RangeCheck SoftHard="Soft" def:ItemOID="IT.LB.LBTESTCD" Comparator="EQ">
                    <CheckValue>GLUC</CheckValue>
                </RangeCheck>
                <RangeCheck SoftHard="Soft" def:ItemOID="IT.LB.LBCAT" Comparator="EQ">
                    <CheckValue>URINALYSIS</CheckValue>
                </RangeCheck>
                <RangeCheck SoftHard="Soft" def:ItemOID="IT.LB.LBSPEC" Comparator="EQ">
                    <CheckValue>URINE</CheckValue>
                </RangeCheck>
                <RangeCheck SoftHard="Soft" def:ItemOID="IT.LB.LBMETHOD" Comparator="EQ">
                    <CheckValue>QUANT</CheckValue>
                </RangeCheck>
            </def:WhereClauseDef>
            <def:WhereClauseDef OID="WC.LB.LBTESTCD.HCT.LBCAT.HEMATOLOGY.LBSPEC.BLOOD">
                <RangeCheck SoftHard="Soft" def:ItemOID="IT.LB.LBTESTCD" Comparator="EQ">
                    <CheckValue>HCT</CheckValue>
                </RangeCheck>
                <RangeCheck SoftHard="Soft" def:ItemOID="IT.LB.LBCAT" Comparator="EQ">
                    <CheckValue>HEMATOLOGY</CheckValue>
                </RangeCheck>
                <RangeCheck SoftHard="Soft" def:ItemOID="IT.LB.LBSPEC" Comparator="EQ">
                    <CheckValue>BLOOD</CheckValue>
                </RangeCheck>
            </def:WhereClauseDef>
            <def:WhereClauseDef OID="WC.LB.LBTESTCD.HGB.LBCAT.HEMATOLOGY.LBSPEC.BLOOD">
                <RangeCheck SoftHard="Soft" def:ItemOID="IT.LB.LBTESTCD" Comparator="EQ">
                    <CheckValue>HGB</CheckValue>
                </RangeCheck>
                <RangeCheck SoftHard="Soft" def:ItemOID="IT.LB.LBCAT" Comparator="EQ">
                    <CheckValue>HEMATOLOGY</CheckValue>
                </RangeCheck>
                <RangeCheck SoftHard="Soft" def:ItemOID="IT.LB.LBSPEC" Comparator="EQ">
                    <CheckValue>BLOOD</CheckValue>
                </RangeCheck>
            </def:WhereClauseDef>
            <def:WhereClauseDef OID="WC.LB.LBTESTCD.LYM.LBCAT.HEMATOLOGY.LBSPEC.BLOOD">
                <RangeCheck SoftHard="Soft" def:ItemOID="IT.LB.LBTESTCD" Comparator="EQ">
                    <CheckValue>LYM</CheckValue>
                </RangeCheck>
                <RangeCheck SoftHard="Soft" def:ItemOID="IT.LB.LBCAT" Comparator="EQ">
                    <CheckValue>HEMATOLOGY</CheckValue>
                </RangeCheck>
                <RangeCheck SoftHard="Soft" def:ItemOID="IT.LB.LBSPEC" Comparator="EQ">
                    <CheckValue>BLOOD</CheckValue>
                </RangeCheck>
            </def:WhereClauseDef>
            <def:WhereClauseDef OID="WC.LB.LBTESTCD.OCCBLD.LBCAT.URINALYSIS.LBSPEC.URINE">
                <RangeCheck SoftHard="Soft" def:ItemOID="IT.LB.LBTESTCD" Comparator="EQ">
                    <CheckValue>OCCBLD</CheckValue>
                </RangeCheck>
                <RangeCheck SoftHard="Soft" def:ItemOID="IT.LB.LBCAT" Comparator="EQ">
                    <CheckValue>URINALYSIS</CheckValue>
                </RangeCheck>
                <RangeCheck SoftHard="Soft" def:ItemOID="IT.LB.LBSPEC" Comparator="EQ">
                    <CheckValue>URINE</CheckValue>
                </RangeCheck>
            </def:WhereClauseDef>
            <def:WhereClauseDef OID="WC.LB.LBTESTCD.PH.LBCAT.URINALYSIS.LBSPEC.URINE">
                <RangeCheck SoftHard="Soft" def:ItemOID="IT.LB.LBTESTCD" Comparator="EQ">
                    <CheckValue>PH</CheckValue>
                </RangeCheck>
                <RangeCheck SoftHard="Soft" def:ItemOID="IT.LB.LBCAT" Comparator="EQ">
                    <CheckValue>URINALYSIS</CheckValue>
                </RangeCheck>
                <RangeCheck SoftHard="Soft" def:ItemOID="IT.LB.LBSPEC" Comparator="EQ">
                    <CheckValue>URINE</CheckValue>
                </RangeCheck>
            </def:WhereClauseDef>
            <def:WhereClauseDef OID="WC.LB.LBTESTCD.VITB12.LBCAT.CHEMISTRY.LBSPEC.SERUM">
                <RangeCheck SoftHard="Soft" def:ItemOID="IT.LB.LBTESTCD" Comparator="EQ">
                    <CheckValue>VITB12</CheckValue>
                </RangeCheck>
                <RangeCheck SoftHard="Soft" def:ItemOID="IT.LB.LBCAT" Comparator="EQ">
                    <CheckValue>CHEMISTRY</CheckValue>
                </RangeCheck>
                <RangeCheck SoftHard="Soft" def:ItemOID="IT.LB.LBSPEC" Comparator="EQ">
                    <CheckValue>SERUM</CheckValue>
                </RangeCheck>
            </def:WhereClauseDef>
            <def:WhereClauseDef OID="WC.LB.LBTESTCD.VITB9.LBCAT.CHEMISTRY.LBSPEC.BLOOD">
                <RangeCheck SoftHard="Soft" def:ItemOID="IT.LB.LBTESTCD" Comparator="EQ">
                    <CheckValue>VITB9</CheckValue>
                </RangeCheck>
                <RangeCheck SoftHard="Soft" def:ItemOID="IT.LB.LBCAT" Comparator="EQ">
                    <CheckValue>CHEMISTRY</CheckValue>
                </RangeCheck>
                <RangeCheck SoftHard="Soft" def:ItemOID="IT.LB.LBSPEC" Comparator="EQ">
                    <CheckValue>BLOOD</CheckValue>
                </RangeCheck>
            </def:WhereClauseDef>
            <def:WhereClauseDef OID="WC.PE.PETESTCD.PE01">
                <RangeCheck SoftHard="Soft" def:ItemOID="IT.PE.PETESTCD" Comparator="EQ">
                    <CheckValue>PE01</CheckValue>
                </RangeCheck>
            </def:WhereClauseDef>
            <def:WhereClauseDef OID="WC.PE.PETESTCD.PE02">
                <RangeCheck SoftHard="Soft" def:ItemOID="IT.PE.PETESTCD" Comparator="EQ">
                    <CheckValue>PE02</CheckValue>
                </RangeCheck>
            </def:WhereClauseDef>
            <def:WhereClauseDef OID="WC.PE.PETESTCD.PE03">
                <RangeCheck SoftHard="Soft" def:ItemOID="IT.PE.PETESTCD" Comparator="EQ">
                    <CheckValue>PE03</CheckValue>
                </RangeCheck>
            </def:WhereClauseDef>
            <def:WhereClauseDef OID="WC.PE.PETESTCD.PE04">
                <RangeCheck SoftHard="Soft" def:ItemOID="IT.PE.PETESTCD" Comparator="EQ">
                    <CheckValue>PE04</CheckValue>
                </RangeCheck>
            </def:WhereClauseDef>
            <def:WhereClauseDef OID="WC.PE.PETESTCD.PE05">
                <RangeCheck SoftHard="Soft" def:ItemOID="IT.PE.PETESTCD" Comparator="EQ">
                    <CheckValue>PE05</CheckValue>
                </RangeCheck>
            </def:WhereClauseDef>
            <def:WhereClauseDef OID="WC.PE.PETESTCD.PE06">
                <RangeCheck SoftHard="Soft" def:ItemOID="IT.PE.PETESTCD" Comparator="EQ">
                    <CheckValue>PE06</CheckValue>
                </RangeCheck>
            </def:WhereClauseDef>
            <def:WhereClauseDef OID="WC.PE.PETESTCD.PE07">
                <RangeCheck SoftHard="Soft" def:ItemOID="IT.PE.PETESTCD" Comparator="EQ">
                    <CheckValue>PE07</CheckValue>
                </RangeCheck>
            </def:WhereClauseDef>
            <def:WhereClauseDef OID="WC.PE.PETESTCD.PE08">
                <RangeCheck SoftHard="Soft" def:ItemOID="IT.PE.PETESTCD" Comparator="EQ">
                    <CheckValue>PE08</CheckValue>
                </RangeCheck>
            </def:WhereClauseDef>
            <def:WhereClauseDef OID="WC.PE.PETESTCD.PE09">
                <RangeCheck SoftHard="Soft" def:ItemOID="IT.PE.PETESTCD" Comparator="EQ">
                    <CheckValue>PE09</CheckValue>
                </RangeCheck>
            </def:WhereClauseDef>
            <def:WhereClauseDef OID="WC.QS.QSTESTCD.CGIGLOB">
                <RangeCheck SoftHard="Soft" def:ItemOID="IT.QSCS.QSTESTCD" Comparator="EQ">
                    <CheckValue>CGIGLOB</CheckValue>
                </RangeCheck>
            </def:WhereClauseDef>
            <def:WhereClauseDef OID="WC.QS.QSTESTCD.CSDD01">
                <RangeCheck SoftHard="Soft" def:ItemOID="IT.QSCS.QSTESTCD" Comparator="EQ">
                    <CheckValue>CSDD01</CheckValue>
                </RangeCheck>
            </def:WhereClauseDef>
            <def:WhereClauseDef OID="WC.QS.QSTESTCD.CSDD02">
                <RangeCheck SoftHard="Soft" def:ItemOID="IT.QSCS.QSTESTCD" Comparator="EQ">
                    <CheckValue>CSDD02</CheckValue>
                </RangeCheck>
            </def:WhereClauseDef>
            <def:WhereClauseDef OID="WC.QS.QSTESTCD.CSDD03">
                <RangeCheck SoftHard="Soft" def:ItemOID="IT.QSCS.QSTESTCD" Comparator="EQ">
                    <CheckValue>CSDD03</CheckValue>
                </RangeCheck>
            </def:WhereClauseDef>
            <def:WhereClauseDef OID="WC.QS.QSTESTCD.CSDD04">
                <RangeCheck SoftHard="Soft" def:ItemOID="IT.QSCS.QSTESTCD" Comparator="EQ">
                    <CheckValue>CSDD04</CheckValue>
                </RangeCheck>
            </def:WhereClauseDef>
            <def:WhereClauseDef OID="WC.QS.QSTESTCD.CSDD05">
                <RangeCheck SoftHard="Soft" def:ItemOID="IT.QSCS.QSTESTCD" Comparator="EQ">
                    <CheckValue>CSDD05</CheckValue>
                </RangeCheck>
            </def:WhereClauseDef>
            <def:WhereClauseDef OID="WC.QS.QSTESTCD.CSDD06">
                <RangeCheck SoftHard="Soft" def:ItemOID="IT.QSCS.QSTESTCD" Comparator="EQ">
                    <CheckValue>CSDD06</CheckValue>
                </RangeCheck>
            </def:WhereClauseDef>
            <def:WhereClauseDef OID="WC.QS.QSTESTCD.CSDD07">
                <RangeCheck SoftHard="Soft" def:ItemOID="IT.QSCS.QSTESTCD" Comparator="EQ">
                    <CheckValue>CSDD07</CheckValue>
                </RangeCheck>
            </def:WhereClauseDef>
            <def:WhereClauseDef OID="WC.QS.QSTESTCD.CSDD08">
                <RangeCheck SoftHard="Soft" def:ItemOID="IT.QSCS.QSTESTCD" Comparator="EQ">
                    <CheckValue>CSDD08</CheckValue>
                </RangeCheck>
            </def:WhereClauseDef>
            <def:WhereClauseDef OID="WC.QS.QSTESTCD.CSDD09">
                <RangeCheck SoftHard="Soft" def:ItemOID="IT.QSCS.QSTESTCD" Comparator="EQ">
                    <CheckValue>CSDD09</CheckValue>
                </RangeCheck>
            </def:WhereClauseDef>
            <def:WhereClauseDef OID="WC.QS.QSTESTCD.CSDD10">
                <RangeCheck SoftHard="Soft" def:ItemOID="IT.QSCS.QSTESTCD" Comparator="EQ">
                    <CheckValue>CSDD10</CheckValue>
                </RangeCheck>
            </def:WhereClauseDef>
            <def:WhereClauseDef OID="WC.QS.QSTESTCD.CSDD11">
                <RangeCheck SoftHard="Soft" def:ItemOID="IT.QSCS.QSTESTCD" Comparator="EQ">
                    <CheckValue>CSDD11</CheckValue>
                </RangeCheck>
            </def:WhereClauseDef>
            <def:WhereClauseDef OID="WC.QS.QSTESTCD.CSDD12">
                <RangeCheck SoftHard="Soft" def:ItemOID="IT.QSCS.QSTESTCD" Comparator="EQ">
                    <CheckValue>CSDD12</CheckValue>
                </RangeCheck>
            </def:WhereClauseDef>
            <def:WhereClauseDef OID="WC.QS.QSTESTCD.CSDD13">
                <RangeCheck SoftHard="Soft" def:ItemOID="IT.QSCS.QSTESTCD" Comparator="EQ">
                    <CheckValue>CSDD13</CheckValue>
                </RangeCheck>
            </def:WhereClauseDef>
            <def:WhereClauseDef OID="WC.QS.QSTESTCD.CSDD14">
                <RangeCheck SoftHard="Soft" def:ItemOID="IT.QSCS.QSTESTCD" Comparator="EQ">
                    <CheckValue>CSDD14</CheckValue>
                </RangeCheck>
            </def:WhereClauseDef>
            <def:WhereClauseDef OID="WC.QS.QSTESTCD.CSDD15">
                <RangeCheck SoftHard="Soft" def:ItemOID="IT.QSCS.QSTESTCD" Comparator="EQ">
                    <CheckValue>CSDD15</CheckValue>
                </RangeCheck>
            </def:WhereClauseDef>
            <def:WhereClauseDef OID="WC.QS.QSTESTCD.CSDD16">
                <RangeCheck SoftHard="Soft" def:ItemOID="IT.QSCS.QSTESTCD" Comparator="EQ">
                    <CheckValue>CSDD16</CheckValue>
                </RangeCheck>
            </def:WhereClauseDef>
            <def:WhereClauseDef OID="WC.QS.QSTESTCD.CSDD17">
                <RangeCheck SoftHard="Soft" def:ItemOID="IT.QSCS.QSTESTCD" Comparator="EQ">
                    <CheckValue>CSDD17</CheckValue>
                </RangeCheck>
            </def:WhereClauseDef>
            <def:WhereClauseDef OID="WC.QS.QSTESTCD.CSDD18">
                <RangeCheck SoftHard="Soft" def:ItemOID="IT.QSCS.QSTESTCD" Comparator="EQ">
                    <CheckValue>CSDD18</CheckValue>
                </RangeCheck>
            </def:WhereClauseDef>
            <def:WhereClauseDef OID="WC.QS.QSTESTCD.CSDD19">
                <RangeCheck SoftHard="Soft" def:ItemOID="IT.QSCS.QSTESTCD" Comparator="EQ">
                    <CheckValue>CSDD19</CheckValue>
                </RangeCheck>
            </def:WhereClauseDef>
            <def:WhereClauseDef OID="WC.QS.QSTESTCD.CSDDTOT">
                <RangeCheck SoftHard="Soft" def:ItemOID="IT.QSCS.QSTESTCD" Comparator="EQ">
                    <CheckValue>CSDDTOT</CheckValue>
                </RangeCheck>
            </def:WhereClauseDef>
            <def:WhereClauseDef OID="WC.QS.QSTESTCD.MMSEA1">
                <RangeCheck SoftHard="Soft" def:ItemOID="IT.QSCS.QSTESTCD" Comparator="EQ">
                    <CheckValue>MMSEA1</CheckValue>
                </RangeCheck>
            </def:WhereClauseDef>
            <def:WhereClauseDef OID="WC.QS.QSTESTCD.MMSEA2">
                <RangeCheck SoftHard="Soft" def:ItemOID="IT.QSMM.QSTESTCD" Comparator="EQ">
                    <CheckValue>MMSEA2</CheckValue>
                </RangeCheck>
            </def:WhereClauseDef>
            <def:WhereClauseDef OID="WC.QS.QSTESTCD.MMSEB">
                <RangeCheck SoftHard="Soft" def:ItemOID="IT.QSMM.QSTESTCD" Comparator="EQ">
                    <CheckValue>MMSEB</CheckValue>
                </RangeCheck>
            </def:WhereClauseDef>
            <def:WhereClauseDef OID="WC.QS.QSTESTCD.MMSEC">
                <RangeCheck SoftHard="Soft" def:ItemOID="IT.QSMM.QSTESTCD" Comparator="EQ">
                    <CheckValue>MMSEC</CheckValue>
                </RangeCheck>
            </def:WhereClauseDef>
            <def:WhereClauseDef OID="WC.QS.QSTESTCD.MMSED">
                <RangeCheck SoftHard="Soft" def:ItemOID="IT.QSMM.QSTESTCD" Comparator="EQ">
                    <CheckValue>MMSED</CheckValue>
                </RangeCheck>
            </def:WhereClauseDef>
            <def:WhereClauseDef OID="WC.QS.QSTESTCD.MMSEET">
                <RangeCheck SoftHard="Soft" def:ItemOID="IT.QSMM.QSTESTCD" Comparator="EQ">
                    <CheckValue>MMSEET</CheckValue>
                </RangeCheck>
            </def:WhereClauseDef>
            <def:WhereClauseDef OID="WC.QS.QSTESTCD.MMSETOT">
                <RangeCheck SoftHard="Soft" def:ItemOID="IT.QSMM.QSTESTCD" Comparator="EQ">
                    <CheckValue>MMSETOT</CheckValue>
                </RangeCheck>
            </def:WhereClauseDef>
            <def:WhereClauseDef OID="WC.SC.SCTESTCD.EDLEVEL">
                <RangeCheck SoftHard="Soft" def:ItemOID="IT.SC.SCTESTCD" Comparator="EQ">
                    <CheckValue>EDLEVEL</CheckValue>
                </RangeCheck>
            </def:WhereClauseDef>
            <def:WhereClauseDef OID="WC.SC.SCTESTCD.MARISTAT">
                <RangeCheck SoftHard="Soft" def:ItemOID="IT.SC.SCTESTCD" Comparator="EQ">
                    <CheckValue>MARISTAT</CheckValue>
                </RangeCheck>
            </def:WhereClauseDef>
            <def:WhereClauseDef OID="WC.SC.SCTESTCD.SUBJINIT">
                <RangeCheck SoftHard="Soft" def:ItemOID="IT.SC.SCTESTCD" Comparator="EQ">
                    <CheckValue>SUBJINIT</CheckValue>
                </RangeCheck>
            </def:WhereClauseDef>
            <def:WhereClauseDef OID="WC.SUPPAE.QNAM.AETRTEM">
                <RangeCheck SoftHard="Soft" def:ItemOID="IT.SUPPAE.QNAM" Comparator="EQ">
                    <CheckValue>AETRTEM</CheckValue>
                </RangeCheck>
            </def:WhereClauseDef>
            <def:WhereClauseDef OID="WC.SUPPAE.QNAM.HLGT">
                <RangeCheck SoftHard="Soft" def:ItemOID="IT.SUPPAE.QNAM" Comparator="EQ">
                    <CheckValue>HLGT</CheckValue>
                </RangeCheck>
            </def:WhereClauseDef>
            <def:WhereClauseDef OID="WC.SUPPAE.QNAM.HLT">
                <RangeCheck SoftHard="Soft" def:ItemOID="IT.SUPPAE.QNAM" Comparator="EQ">
                    <CheckValue>HLT</CheckValue>
                </RangeCheck>
            </def:WhereClauseDef>
            <def:WhereClauseDef OID="WC.SUPPAE.QNAM.LLT">
                <RangeCheck SoftHard="Soft" def:ItemOID="IT.SUPPAE.QNAM" Comparator="EQ">
                    <CheckValue>LLT</CheckValue>
                </RangeCheck>
            </def:WhereClauseDef>
            <def:WhereClauseDef OID="WC.SUPPCM.QNAM.ATC4CODE">
                <RangeCheck SoftHard="Soft" def:ItemOID="IT.SUPPCM.QNAM" Comparator="EQ">
                    <CheckValue>ATC4CODE</CheckValue>
                </RangeCheck>
            </def:WhereClauseDef>
            <def:WhereClauseDef OID="WC.SUPPCM.QNAM.ATC4TERM">
                <RangeCheck SoftHard="Soft" def:ItemOID="IT.SUPPCM.QNAM" Comparator="EQ">
                    <CheckValue>ATC4TERM</CheckValue>
                </RangeCheck>
            </def:WhereClauseDef>
            <def:WhereClauseDef OID="WC.SUPPCM.QNAM.CPREFCD">
                <RangeCheck SoftHard="Soft" def:ItemOID="IT.SUPPCM.QNAM" Comparator="EQ">
                    <CheckValue>CPREFCD</CheckValue>
                </RangeCheck>
            </def:WhereClauseDef>
            <def:WhereClauseDef OID="WC.SUPPCM.QNAM.PDDREAS">
                <RangeCheck SoftHard="Soft" def:ItemOID="IT.SUPPCM.QNAM" Comparator="EQ">
                    <CheckValue>PDDREAS</CheckValue>
                </RangeCheck>
            </def:WhereClauseDef>
            <def:WhereClauseDef OID="WC.SUPPCM.QNAM.PDRESP">
                <RangeCheck SoftHard="Soft" def:ItemOID="IT.SUPPCM.QNAM" Comparator="EQ">
                    <CheckValue>PDRESP</CheckValue>
                </RangeCheck>
            </def:WhereClauseDef>
            <def:WhereClauseDef OID="WC.SUPPDM.QNAM.RACE1">
                <RangeCheck SoftHard="Soft" def:ItemOID="IT.SUPPDM.QNAM" Comparator="EQ">
                    <CheckValue>RACE1</CheckValue>
                </RangeCheck>
            </def:WhereClauseDef>
            <def:WhereClauseDef OID="WC.SUPPDM.QNAM.RACE2">
                <RangeCheck SoftHard="Soft" def:ItemOID="IT.SUPPDM.QNAM" Comparator="EQ">
                    <CheckValue>RACE2</CheckValue>
                </RangeCheck>
            </def:WhereClauseDef>
            <def:WhereClauseDef OID="WC.SUPPDM.QNAM.RACE3">
                <RangeCheck SoftHard="Soft" def:ItemOID="IT.SUPPDM.QNAM" Comparator="EQ">
                    <CheckValue>RACE3</CheckValue>
                </RangeCheck>
            </def:WhereClauseDef>
            <def:WhereClauseDef OID="WC.SUPPDM.QNAM.RACEOTH">
                <RangeCheck SoftHard="Soft" def:ItemOID="IT.SUPPDM.QNAM" Comparator="EQ">
                    <CheckValue>RACEOTH</CheckValue>
                </RangeCheck>
            </def:WhereClauseDef>
            <def:WhereClauseDef OID="WC.SUPPDM.QNAM.RAND">
                <RangeCheck SoftHard="Soft" def:ItemOID="IT.SUPPDM.QNAM" Comparator="EQ">
                    <CheckValue>RAND</CheckValue>
                </RangeCheck>
            </def:WhereClauseDef>
            <def:WhereClauseDef OID="WC.SUPPDM.QNAM.RANDNO">
                <RangeCheck SoftHard="Soft" def:ItemOID="IT.SUPPDM.QNAM" Comparator="EQ">
                    <CheckValue>RANDNO</CheckValue>
                </RangeCheck>
            </def:WhereClauseDef>
            <def:WhereClauseDef OID="WC.SUPPDM.QNAM.SAFETY">
                <RangeCheck SoftHard="Soft" def:ItemOID="IT.SUPPDM.QNAM" Comparator="EQ">
                    <CheckValue>SAFETY</CheckValue>
                </RangeCheck>
            </def:WhereClauseDef>
            <def:WhereClauseDef OID="WC.SUPPEG.QNAM.EGCLSIG">
                <RangeCheck SoftHard="Soft" def:ItemOID="IT.SUPPEG.QNAM" Comparator="EQ">
                    <CheckValue>EGCLSIG</CheckValue>
                </RangeCheck>
            </def:WhereClauseDef>
            <def:WhereClauseDef OID="WC.SUPPEX.QNAM.SMNO">
                <RangeCheck SoftHard="Soft" def:ItemOID="IT.SUPPEX.QNAM" Comparator="EQ">
                    <CheckValue>SMNO</CheckValue>
                </RangeCheck>
            </def:WhereClauseDef>
            <def:WhereClauseDef OID="WC.SUPPLB.QNAM.LBCLSIG">
                <RangeCheck SoftHard="Soft" def:ItemOID="IT.SUPPLB.QNAM" Comparator="EQ">
                    <CheckValue>LBCLSIG</CheckValue>
                </RangeCheck>
            </def:WhereClauseDef>
            <def:WhereClauseDef OID="WC.SUPPQS.QNAM.RTRINIT">
                <RangeCheck SoftHard="Soft" def:ItemOID="IT.SUPPQSMM.QNAM" Comparator="EQ">
                    <CheckValue>RTRINIT</CheckValue>
                </RangeCheck>
            </def:WhereClauseDef>
            <def:WhereClauseDef OID="WC.SUPPVS.QNAM.VSCLSIG">
                <RangeCheck SoftHard="Soft" def:ItemOID="IT.SUPPVS.QNAM" Comparator="EQ">
                    <CheckValue>VSCLSIG</CheckValue>
                </RangeCheck>
            </def:WhereClauseDef>
            <def:WhereClauseDef OID="WC.TS.TSPARMCD.ADDON">
                <RangeCheck SoftHard="Soft" def:ItemOID="IT.TS.TSPARMCD" Comparator="EQ">
                    <CheckValue>ADDON</CheckValue>
                </RangeCheck>
            </def:WhereClauseDef>
            <def:WhereClauseDef OID="WC.TS.TSPARMCD.AGEMAX">
                <RangeCheck SoftHard="Soft" def:ItemOID="IT.TS.TSPARMCD" Comparator="EQ">
                    <CheckValue>AGEMAX</CheckValue>
                </RangeCheck>
            </def:WhereClauseDef>
            <def:WhereClauseDef OID="WC.TS.TSPARMCD.AGEMIN">
                <RangeCheck SoftHard="Soft" def:ItemOID="IT.TS.TSPARMCD" Comparator="EQ">
                    <CheckValue>AGEMIN</CheckValue>
                </RangeCheck>
            </def:WhereClauseDef>
            <def:WhereClauseDef OID="WC.TS.TSPARMCD.AGESPAN">
                <RangeCheck SoftHard="Soft" def:ItemOID="IT.TS.TSPARMCD" Comparator="EQ">
                    <CheckValue>AGESPAN</CheckValue>
                </RangeCheck>
            </def:WhereClauseDef>
            <def:WhereClauseDef OID="WC.TS.TSPARMCD.AGEU">
                <RangeCheck SoftHard="Soft" def:ItemOID="IT.TS.TSPARMCD" Comparator="EQ">
                    <CheckValue>AGEU</CheckValue>
                </RangeCheck>
            </def:WhereClauseDef>
            <def:WhereClauseDef OID="WC.TS.TSPARMCD.DOSE">
                <RangeCheck SoftHard="Soft" def:ItemOID="IT.TS.TSPARMCD" Comparator="EQ">
                    <CheckValue>DOSE</CheckValue>
                </RangeCheck>
            </def:WhereClauseDef>
            <def:WhereClauseDef OID="WC.TS.TSPARMCD.DOSFRQ">
                <RangeCheck SoftHard="Soft" def:ItemOID="IT.TS.TSPARMCD" Comparator="EQ">
                    <CheckValue>DOSFRQ</CheckValue>
                </RangeCheck>
            </def:WhereClauseDef>
            <def:WhereClauseDef OID="WC.TS.TSPARMCD.DOSU">
                <RangeCheck SoftHard="Soft" def:ItemOID="IT.TS.TSPARMCD" Comparator="EQ">
                    <CheckValue>DOSU</CheckValue>
                </RangeCheck>
            </def:WhereClauseDef>
            <def:WhereClauseDef OID="WC.TS.TSPARMCD.LENGTH">
                <RangeCheck SoftHard="Soft" def:ItemOID="IT.TS.TSPARMCD" Comparator="EQ">
                    <CheckValue>LENGTH</CheckValue>
                </RangeCheck>
            </def:WhereClauseDef>
            <def:WhereClauseDef OID="WC.TS.TSPARMCD.OBJPRIM">
                <RangeCheck SoftHard="Soft" def:ItemOID="IT.TS.TSPARMCD" Comparator="EQ">
                    <CheckValue>OBJPRIM</CheckValue>
                </RangeCheck>
            </def:WhereClauseDef>
            <def:WhereClauseDef OID="WC.TS.TSPARMCD.OBJSEC">
                <RangeCheck SoftHard="Soft" def:ItemOID="IT.TS.TSPARMCD" Comparator="EQ">
                    <CheckValue>OBJSEC</CheckValue>
                </RangeCheck>
            </def:WhereClauseDef>
            <def:WhereClauseDef OID="WC.TS.TSPARMCD.PLANSUB">
                <RangeCheck SoftHard="Soft" def:ItemOID="IT.TS.TSPARMCD" Comparator="EQ">
                    <CheckValue>PLANSUB</CheckValue>
                </RangeCheck>
            </def:WhereClauseDef>
            <def:WhereClauseDef OID="WC.TS.TSPARMCD.RANDOM">
                <RangeCheck SoftHard="Soft" def:ItemOID="IT.TS.TSPARMCD" Comparator="EQ">
                    <CheckValue>RANDOM</CheckValue>
                </RangeCheck>
            </def:WhereClauseDef>
            <def:WhereClauseDef OID="WC.TS.TSPARMCD.ROUTE">
                <RangeCheck SoftHard="Soft" def:ItemOID="IT.TS.TSPARMCD" Comparator="EQ">
                    <CheckValue>ROUTE</CheckValue>
                </RangeCheck>
            </def:WhereClauseDef>
            <def:WhereClauseDef OID="WC.TS.TSPARMCD.SEXPOP">
                <RangeCheck SoftHard="Soft" def:ItemOID="IT.TS.TSPARMCD" Comparator="EQ">
                    <CheckValue>SEXPOP</CheckValue>
                </RangeCheck>
            </def:WhereClauseDef>
            <def:WhereClauseDef OID="WC.TS.TSPARMCD.SPONSOR">
                <RangeCheck SoftHard="Soft" def:ItemOID="IT.TS.TSPARMCD" Comparator="EQ">
                    <CheckValue>SPONSOR</CheckValue>
                </RangeCheck>
            </def:WhereClauseDef>
            <def:WhereClauseDef OID="WC.TS.TSPARMCD.TBLIND">
                <RangeCheck SoftHard="Soft" def:ItemOID="IT.TS.TSPARMCD" Comparator="EQ">
                    <CheckValue>TBLIND</CheckValue>
                </RangeCheck>
            </def:WhereClauseDef>
            <def:WhereClauseDef OID="WC.TS.TSPARMCD.TCNTRL">
                <RangeCheck SoftHard="Soft" def:ItemOID="IT.TS.TSPARMCD" Comparator="EQ">
                    <CheckValue>TCNTRL</CheckValue>
                </RangeCheck>
            </def:WhereClauseDef>
            <def:WhereClauseDef OID="WC.TS.TSPARMCD.TINDTP">
                <RangeCheck SoftHard="Soft" def:ItemOID="IT.TS.TSPARMCD" Comparator="EQ">
                    <CheckValue>TINDTP</CheckValue>
                </RangeCheck>
            </def:WhereClauseDef>
            <def:WhereClauseDef OID="WC.TS.TSPARMCD.TITLE">
                <RangeCheck SoftHard="Soft" def:ItemOID="IT.TS.TSPARMCD" Comparator="EQ">
                    <CheckValue>TITLE</CheckValue>
                </RangeCheck>
            </def:WhereClauseDef>
            <def:WhereClauseDef OID="WC.TS.TSPARMCD.TPHASE">
                <RangeCheck SoftHard="Soft" def:ItemOID="IT.TS.TSPARMCD" Comparator="EQ">
                    <CheckValue>TPHASE</CheckValue>
                </RangeCheck>
            </def:WhereClauseDef>
            <def:WhereClauseDef OID="WC.TS.TSPARMCD.TRT">
                <RangeCheck SoftHard="Soft" def:ItemOID="IT.TS.TSPARMCD" Comparator="EQ">
                    <CheckValue>TRT</CheckValue>
                </RangeCheck>
            </def:WhereClauseDef>
            <def:WhereClauseDef OID="WC.TS.TSPARMCD.TTYPE">
                <RangeCheck SoftHard="Soft" def:ItemOID="IT.TS.TSPARMCD" Comparator="EQ">
                    <CheckValue>TTYPE</CheckValue>
                </RangeCheck>
            </def:WhereClauseDef>
            <def:WhereClauseDef OID="WC.VS.VSTESTCD.DIABP">
                <RangeCheck SoftHard="Soft" def:ItemOID="IT.VS.VSTESTCD" Comparator="EQ">
                    <CheckValue>DIABP</CheckValue>
                </RangeCheck>
            </def:WhereClauseDef>
            <def:WhereClauseDef OID="WC.VS.VSTESTCD.FRMSIZE">
                <RangeCheck SoftHard="Soft" def:ItemOID="IT.VS.VSTESTCD" Comparator="EQ">
                    <CheckValue>FRMSIZE</CheckValue>
                </RangeCheck>
            </def:WhereClauseDef>
            <def:WhereClauseDef OID="WC.VS.VSTESTCD.HEIGHT">
                <RangeCheck SoftHard="Soft" def:ItemOID="IT.VS.VSTESTCD" Comparator="EQ">
                    <CheckValue>HEIGHT</CheckValue>
                </RangeCheck>
            </def:WhereClauseDef>
            <def:WhereClauseDef OID="WC.VS.VSTESTCD.PULSE">
                <RangeCheck SoftHard="Soft" def:ItemOID="IT.VS.VSTESTCD" Comparator="EQ">
                    <CheckValue>PULSE</CheckValue>
                </RangeCheck>
            </def:WhereClauseDef>
            <def:WhereClauseDef OID="WC.VS.VSTESTCD.SYSBP">
                <RangeCheck SoftHard="Soft" def:ItemOID="IT.VS.VSTESTCD" Comparator="EQ">
                    <CheckValue>SYSBP</CheckValue>
                </RangeCheck>
            </def:WhereClauseDef>
            <def:WhereClauseDef OID="WC.VS.VSTESTCD.WEIGHT">
                <RangeCheck SoftHard="Soft" def:ItemOID="IT.VS.VSTESTCD" Comparator="EQ">
                    <CheckValue>WEIGHT</CheckValue>
                </RangeCheck>
            </def:WhereClauseDef>
            <def:WhereClauseDef OID="WC.VS.VSTESTCD.HEIGHT.[DM].COUNTRY.CMETRIC"
                                def:CommentOID="COM.SUBJECTDATA-JOIN-DM">
                <RangeCheck SoftHard="Soft" def:ItemOID="IT.VS.VSTESTCD" Comparator="EQ">
                    <CheckValue>HEIGHT</CheckValue>
                </RangeCheck>
                <RangeCheck SoftHard="Soft" def:ItemOID="IT.DM.COUNTRY" Comparator="IN">
                    <CheckValue>CAN,MEX</CheckValue>
                </RangeCheck>
            </def:WhereClauseDef>
            <def:WhereClauseDef OID="WC.VS.VSTESTCD.HEIGHT.[DM].COUNTRY.CNMETRIC"
                                def:CommentOID="COM.SUBJECTDATA-JOIN-DM">
                <RangeCheck SoftHard="Soft" def:ItemOID="IT.VS.VSTESTCD" Comparator="EQ">
                    <CheckValue>HEIGHT</CheckValue>
                </RangeCheck>
                <RangeCheck SoftHard="Soft" def:ItemOID="IT.DM.COUNTRY" Comparator="EQ">
                    <CheckValue>USA</CheckValue>
                </RangeCheck>
            </def:WhereClauseDef>
            <def:WhereClauseDef OID="WC.VS.VSTESTCD.WEIGHT.[DM].COUNTRY.CMETRIC"
                                def:CommentOID="COM.SUBJECTDATA-JOIN-DM">
                <RangeCheck SoftHard="Soft" def:ItemOID="IT.VS.VSTESTCD" Comparator="EQ">
                    <CheckValue>WEIGHT</CheckValue>
                </RangeCheck>
                <RangeCheck SoftHard="Soft" def:ItemOID="IT.DM.COUNTRY" Comparator="IN">
                    <CheckValue>CAN,MEX</CheckValue>
                </RangeCheck>
            </def:WhereClauseDef>
            <def:WhereClauseDef OID="WC.VS.VSTESTCD.WEIGHT.[DM].COUNTRY.CNMETRIC"
                                def:CommentOID="COM.SUBJECTDATA-JOIN-DM">
                <RangeCheck SoftHard="Soft" def:ItemOID="IT.VS.VSTESTCD" Comparator="EQ">
                    <CheckValue>WEIGHT</CheckValue>
                </RangeCheck>
                <RangeCheck SoftHard="Soft" def:ItemOID="IT.DM.COUNTRY" Comparator="EQ">
                    <CheckValue>USA</CheckValue>
                </RangeCheck>
            </def:WhereClauseDef>
            <ItemGroupDef OID="IG.AE" Name="AE" Repeating="Yes" Domain="AE" SASDatasetName="AE" IsReferenceData="No"
                          Purpose="Tabulation" def:Structure="One record per adverse event per subject"
                          def:ArchiveLocationID="LF.AE" def:CommentOID="COM.STD1" def:StandardOID="STD.1">
                <Description>
                    <TranslatedText xml:lang="en">Adverse Events</TranslatedText>
                </Description>
                <ItemRef ItemOID="IT.AE.STUDYID" Mandatory="Yes" OrderNumber="1" KeySequence="1"/>
                <ItemRef ItemOID="IT.AE.DOMAIN" Mandatory="Yes" OrderNumber="2"/>
                <ItemRef ItemOID="IT.AE.USUBJID" Mandatory="Yes" MethodOID="MT.USUBJID" OrderNumber="3"
                         KeySequence="2"/>
                <ItemRef ItemOID="IT.AE.AESEQ" Mandatory="Yes" MethodOID="MT.SEQ" OrderNumber="4"/>
                <ItemRef ItemOID="IT.AE.AESPID" Mandatory="No" OrderNumber="5"/>
                <ItemRef ItemOID="IT.AE.AETERM" Mandatory="Yes" OrderNumber="6"/>
                <ItemRef ItemOID="IT.AE.AEMODIFY" Mandatory="No" OrderNumber="7"/>
                <ItemRef ItemOID="IT.AE.AEDECOD" Mandatory="Yes" OrderNumber="8" KeySequence="3"/>
                <ItemRef ItemOID="IT.AE.AEBODSYS" Mandatory="No" OrderNumber="9"/>
                <ItemRef ItemOID="IT.AE.AESEV" Mandatory="Yes" OrderNumber="10"/>
                <ItemRef ItemOID="IT.AE.AESER" Mandatory="Yes" OrderNumber="11"/>
                <ItemRef ItemOID="IT.AE.AEACN" Mandatory="Yes" OrderNumber="12"/>
                <ItemRef ItemOID="IT.AE.AEREL" Mandatory="Yes" OrderNumber="13"/>
                <ItemRef ItemOID="IT.AE.AESTDTC" Mandatory="No" OrderNumber="14" KeySequence="4"/>
                <ItemRef ItemOID="IT.AE.AEENDTC" Mandatory="No" OrderNumber="15"/>
                <ItemRef ItemOID="IT.AE.AESTDY" Mandatory="No" MethodOID="MT.AESTDY" OrderNumber="16"/>
                <ItemRef ItemOID="IT.AE.AEENDY" Mandatory="No" MethodOID="MT.AEENDY" OrderNumber="17"/>
                <ItemRef ItemOID="IT.AE.AEENRF" Mandatory="No" OrderNumber="18"/>
                <def:Class Name="EVENTS"/>
                <def:leaf ID="LF.AE" xlink:href="ae.xpt">
                    <def:title>ae.xpt</def:title>
                </def:leaf>
            </ItemGroupDef>
            <ItemGroupDef OID="IG.CM" Name="CM" Repeating="Yes" Domain="CM" SASDatasetName="CM" IsReferenceData="No"
                          Purpose="Tabulation"
                          def:Structure="One record per recorded medication occurrence or constant-dosing interval per subject"
                          def:ArchiveLocationID="LF.CM" def:CommentOID="COM.STD1" def:StandardOID="STD.1">
                <Description>
                    <TranslatedText xml:lang="en">Concomitant Medications</TranslatedText>
                </Description>
                <ItemRef ItemOID="IT.CM.STUDYID" Mandatory="Yes" OrderNumber="1" KeySequence="1"/>
                <ItemRef ItemOID="IT.CM.DOMAIN" Mandatory="Yes" OrderNumber="2"/>
                <ItemRef ItemOID="IT.CM.USUBJID" Mandatory="Yes" MethodOID="MT.USUBJID" OrderNumber="3"
                         KeySequence="2"/>
                <ItemRef ItemOID="IT.CM.CMSEQ" Mandatory="Yes" MethodOID="MT.SEQ" OrderNumber="4"/>
                <ItemRef ItemOID="IT.CM.CMTRT" Mandatory="Yes" OrderNumber="5" KeySequence="6"/>
                <ItemRef ItemOID="IT.CM.CMMODIFY" Mandatory="No" OrderNumber="6"/>
                <ItemRef ItemOID="IT.CM.CMDECOD" Mandatory="No" OrderNumber="7"/>
                <ItemRef ItemOID="IT.CM.CMCAT" Mandatory="No" OrderNumber="8" KeySequence="5"/>
                <ItemRef ItemOID="IT.CM.CMINDC" Mandatory="No" OrderNumber="9" KeySequence="9"/>
                <ItemRef ItemOID="IT.CM.CMCLAS" Mandatory="No" OrderNumber="10"/>
                <ItemRef ItemOID="IT.CM.CMCLASCD" Mandatory="No" OrderNumber="11"/>
                <ItemRef ItemOID="IT.CM.CMDOSTXT" Mandatory="No" OrderNumber="12" KeySequence="7"/>
                <ItemRef ItemOID="IT.CM.CMDOSU" Mandatory="No" OrderNumber="13" KeySequence="8"/>
                <ItemRef ItemOID="IT.CM.CMDOSFRQ" Mandatory="No" OrderNumber="14" KeySequence="10"/>
                <ItemRef ItemOID="IT.CM.CMROUTE" Mandatory="No" OrderNumber="15"/>
                <ItemRef ItemOID="IT.CM.CMSTDTC" Mandatory="No" OrderNumber="16" KeySequence="3"/>
                <ItemRef ItemOID="IT.CM.CMENDTC" Mandatory="No" OrderNumber="17" KeySequence="4"/>
                <ItemRef ItemOID="IT.CM.CMSTDY" Mandatory="No" MethodOID="MT.CMSTDY" OrderNumber="18"/>
                <ItemRef ItemOID="IT.CM.CMENDY" Mandatory="No" MethodOID="MT.CMENDY" OrderNumber="19"/>
                <ItemRef ItemOID="IT.CM.CMENRF" Mandatory="No" OrderNumber="20"/>
                <def:Class Name="INTERVENTIONS"/>
                <def:leaf ID="LF.CM" xlink:href="cm.xpt">
                    <def:title>cm.xpt</def:title>
                </def:leaf>
            </ItemGroupDef>
            <ItemGroupDef OID="IG.DA" Name="DA" Repeating="Yes" Domain="DA" SASDatasetName="DA" IsReferenceData="No"
                          Purpose="Tabulation" def:Structure="One record per drug accountability finding per subject"
                          def:ArchiveLocationID="LF.DA" def:CommentOID="COM.STD1" def:StandardOID="STD.1">
                <Description>
                    <TranslatedText xml:lang="en">Drug Accountability</TranslatedText>
                </Description>
                <ItemRef ItemOID="IT.DA.STUDYID" Mandatory="Yes" OrderNumber="1" KeySequence="1"/>
                <ItemRef ItemOID="IT.DA.DOMAIN" Mandatory="Yes" OrderNumber="2"/>
                <ItemRef ItemOID="IT.DA.USUBJID" Mandatory="Yes" MethodOID="MT.USUBJID" OrderNumber="3"
                         KeySequence="2"/>
                <ItemRef ItemOID="IT.DA.DASEQ" Mandatory="Yes" MethodOID="MT.SEQ" OrderNumber="4"/>
                <ItemRef ItemOID="IT.DA.DATESTCD" Mandatory="Yes" OrderNumber="5" KeySequence="3"/>
                <ItemRef ItemOID="IT.DA.DATEST" Mandatory="Yes" OrderNumber="6"/>
                <ItemRef ItemOID="IT.DA.DAORRES" Mandatory="No" OrderNumber="7"/>
                <ItemRef ItemOID="IT.DA.DAORRESU" Mandatory="No" OrderNumber="8"/>
                <ItemRef ItemOID="IT.DA.DASTRESC" Mandatory="No" MethodOID="MT.DASTRESC" OrderNumber="9"/>
                <ItemRef ItemOID="IT.DA.DASTRESN" Mandatory="No" MethodOID="MT.DASTRESN" OrderNumber="10"/>
                <ItemRef ItemOID="IT.DA.DASTRESU" Mandatory="No" MethodOID="MT.DASTRESU" OrderNumber="11"/>
                <ItemRef ItemOID="IT.DA.VISITNUM" Mandatory="No" MethodOID="MT.DA.VISITNUM" OrderNumber="12"/>
                <ItemRef ItemOID="IT.DA.VISIT" Mandatory="No" OrderNumber="13"/>
                <ItemRef ItemOID="IT.DA.VISITDY" Mandatory="No" OrderNumber="14"/>
                <ItemRef ItemOID="IT.DA.DADTC" Mandatory="No" OrderNumber="15" KeySequence="4"/>
                <ItemRef ItemOID="IT.DA.DADY" Mandatory="No" MethodOID="MT.DADY" OrderNumber="16"/>
                <def:Class Name="FINDINGS"/>
                <def:leaf ID="LF.DA" xlink:href="da.xpt">
                    <def:title>da.xpt</def:title>
                </def:leaf>
            </ItemGroupDef>
            <ItemGroupDef OID="IG.DM" Name="DM" Repeating="No" Domain="DM" SASDatasetName="DM" IsReferenceData="No"
                          Purpose="Tabulation" def:Structure="One record per subject" def:ArchiveLocationID="LF.DM"
                          def:CommentOID="COM.DOMAIN.DM" def:StandardOID="STD.1">
                <Description>
                    <TranslatedText xml:lang="en">Demographics</TranslatedText>
                </Description>
                <ItemRef ItemOID="IT.DM.STUDYID" Mandatory="Yes" OrderNumber="1" KeySequence="1"/>
                <ItemRef ItemOID="IT.DM.DOMAIN" Mandatory="Yes" OrderNumber="2"/>
                <ItemRef ItemOID="IT.DM.USUBJID" Mandatory="Yes" MethodOID="MT.USUBJID" OrderNumber="3"
                         KeySequence="2"/>
                <ItemRef ItemOID="IT.DM.SUBJID" Mandatory="Yes" OrderNumber="4"/>
                <ItemRef ItemOID="IT.DM.RFSTDTC" Mandatory="No" MethodOID="MT.RFSTDTC" OrderNumber="5"/>
                <ItemRef ItemOID="IT.DM.RFENDTC" Mandatory="No" MethodOID="MT.RFENDTC" OrderNumber="6"/>
                <ItemRef ItemOID="IT.DM.SITEID" Mandatory="Yes" OrderNumber="7"/>
                <ItemRef ItemOID="IT.DM.BRTHDTC" Mandatory="No" OrderNumber="8"/>
                <ItemRef ItemOID="IT.DM.AGE" Mandatory="Yes" MethodOID="MT.AGE" OrderNumber="9"/>
                <ItemRef ItemOID="IT.DM.AGEU" Mandatory="No" OrderNumber="10"/>
                <ItemRef ItemOID="IT.DM.SEX" Mandatory="Yes" OrderNumber="11"/>
                <ItemRef ItemOID="IT.DM.RACE" Mandatory="No" OrderNumber="12"/>
                <ItemRef ItemOID="IT.DM.ETHNIC" Mandatory="Yes" OrderNumber="13"/>
                <ItemRef ItemOID="IT.DM.ARMCD" Mandatory="Yes" OrderNumber="14"/>
                <ItemRef ItemOID="IT.DM.ARM" Mandatory="Yes" OrderNumber="15"/>
                <ItemRef ItemOID="IT.DM.COUNTRY" Mandatory="Yes" OrderNumber="16"/>
                <def:Class Name="SPECIAL PURPOSE"/>
                <def:leaf ID="LF.DM" xlink:href="dm.xpt">
                    <def:title>dm.xpt</def:title>
                </def:leaf>
            </ItemGroupDef>
            <ItemGroupDef OID="IG.DS" Name="DS" Repeating="Yes" Domain="DS" SASDatasetName="DS" IsReferenceData="No"
                          Purpose="Tabulation"
                          def:Structure="One record per disposition status or protocol milestone per subject"
                          def:ArchiveLocationID="LF.DS" def:CommentOID="COM.STD1" def:StandardOID="STD.1">
                <Description>
                    <TranslatedText xml:lang="en">Disposition</TranslatedText>
                </Description>
                <ItemRef ItemOID="IT.DS.STUDYID" Mandatory="Yes" OrderNumber="1" KeySequence="1"/>
                <ItemRef ItemOID="IT.DS.DOMAIN" Mandatory="Yes" OrderNumber="2"/>
                <ItemRef ItemOID="IT.DS.USUBJID" Mandatory="Yes" MethodOID="MT.USUBJID" OrderNumber="3"
                         KeySequence="2"/>
                <ItemRef ItemOID="IT.DS.DSSEQ" Mandatory="Yes" MethodOID="MT.SEQ" OrderNumber="4"/>
                <ItemRef ItemOID="IT.DS.DSTERM" Mandatory="Yes" OrderNumber="5"/>
                <ItemRef ItemOID="IT.DS.DSDECOD" Mandatory="Yes" OrderNumber="6" KeySequence="6"/>
                <ItemRef ItemOID="IT.DS.DSCAT" Mandatory="No" OrderNumber="7" KeySequence="5"/>
                <ItemRef ItemOID="IT.DS.EPOCH" Mandatory="No" OrderNumber="8"/>
                <ItemRef ItemOID="IT.DS.DSSTDTC" Mandatory="No" OrderNumber="9" KeySequence="4"/>
                <ItemRef ItemOID="IT.DS.DSSTDY" Mandatory="No" MethodOID="MT.DSSTDY" OrderNumber="10" KeySequence="3"/>
                <def:Class Name="EVENTS"/>
                <def:leaf ID="LF.DS" xlink:href="ds.xpt">
                    <def:title>ds.xpt</def:title>
                </def:leaf>
            </ItemGroupDef>
            <ItemGroupDef OID="IG.EG" Name="EG" Repeating="Yes" Domain="EG" SASDatasetName="EG" IsReferenceData="No"
                          Purpose="Tabulation" def:Structure="One record per ECG observation per visit per subject"
                          def:ArchiveLocationID="LF.EG" def:CommentOID="COM.STD1" def:StandardOID="STD.1">
                <Description>
                    <TranslatedText xml:lang="en">ECG Test Results</TranslatedText>
                </Description>
                <ItemRef ItemOID="IT.EG.STUDYID" Mandatory="Yes" OrderNumber="1" KeySequence="1"/>
                <ItemRef ItemOID="IT.EG.DOMAIN" Mandatory="Yes" OrderNumber="2"/>
                <ItemRef ItemOID="IT.EG.USUBJID" Mandatory="Yes" MethodOID="MT.USUBJID" OrderNumber="3"
                         KeySequence="2"/>
                <ItemRef ItemOID="IT.EG.EGSEQ" Mandatory="Yes" MethodOID="MT.SEQ" OrderNumber="4"/>
                <ItemRef ItemOID="IT.EG.EGSPID" Mandatory="No" OrderNumber="5"/>
                <ItemRef ItemOID="IT.EG.EGTESTCD" Mandatory="Yes" OrderNumber="6" KeySequence="3"/>
                <ItemRef ItemOID="IT.EG.EGTEST" Mandatory="Yes" OrderNumber="7"/>
                <ItemRef ItemOID="IT.EG.EGPOS" Mandatory="No" OrderNumber="8"/>
                <ItemRef ItemOID="IT.EG.EGORRES" Mandatory="No" OrderNumber="9"/>
                <ItemRef ItemOID="IT.EG.EGORRESU" Mandatory="No" OrderNumber="10"/>
                <ItemRef ItemOID="IT.EG.EGSTRESC" Mandatory="No" MethodOID="MT.EGSTRESC" OrderNumber="11"/>
                <ItemRef ItemOID="IT.EG.EGSTRESN" Mandatory="No" MethodOID="MT.EGSTRESN" OrderNumber="12"/>
                <ItemRef ItemOID="IT.EG.EGSTRESU" Mandatory="No" OrderNumber="13"/>
                <ItemRef ItemOID="IT.EG.EGBLFL" Mandatory="No" MethodOID="MT.EGBLFL" OrderNumber="14"/>
                <ItemRef ItemOID="IT.EG.EGDRVFL" Mandatory="No" MethodOID="MT.EGDRVFL" OrderNumber="15"/>
                <ItemRef ItemOID="IT.EG.EGEVAL" Mandatory="No" OrderNumber="16"/>
                <ItemRef ItemOID="IT.EG.VISITNUM" Mandatory="No" OrderNumber="17" KeySequence="5"/>
                <ItemRef ItemOID="IT.EG.VISIT" Mandatory="No" OrderNumber="18"/>
                <ItemRef ItemOID="IT.EG.VISITDY" Mandatory="No" OrderNumber="19"/>
                <ItemRef ItemOID="IT.EG.EGDTC" Mandatory="No" OrderNumber="20" KeySequence="4"/>
                <ItemRef ItemOID="IT.EG.EGDY" Mandatory="No" MethodOID="MT.EGDY" OrderNumber="21"/>
                <def:Class Name="FINDINGS"/>
                <def:leaf ID="LF.EG" xlink:href="eg.xpt">
                    <def:title>eg.xpt</def:title>
                </def:leaf>
            </ItemGroupDef>
            <ItemGroupDef OID="IG.EX" Name="EX" Repeating="Yes" Domain="EX" SASDatasetName="EX" IsReferenceData="No"
                          Purpose="Tabulation" def:Structure="One record per constant dosing interval per subject"
                          def:ArchiveLocationID="LF.EX" def:CommentOID="COM.STD1" def:StandardOID="STD.1">
                <Description>
                    <TranslatedText xml:lang="en">Exposure</TranslatedText>
                </Description>
                <ItemRef ItemOID="IT.EX.STUDYID" Mandatory="Yes" OrderNumber="1" KeySequence="1"/>
                <ItemRef ItemOID="IT.EX.DOMAIN" Mandatory="Yes" OrderNumber="2"/>
                <ItemRef ItemOID="IT.EX.USUBJID" Mandatory="Yes" MethodOID="MT.USUBJID" OrderNumber="3"
                         KeySequence="2"/>
                <ItemRef ItemOID="IT.EX.EXSEQ" Mandatory="Yes" MethodOID="MT.SEQ" OrderNumber="4"/>
                <ItemRef ItemOID="IT.EX.EXTRT" Mandatory="Yes" MethodOID="MT.EXTRT" OrderNumber="5" KeySequence="5"/>
                <ItemRef ItemOID="IT.EX.EXDOSE" Mandatory="No" MethodOID="MT.EXDOSE" OrderNumber="6" KeySequence="6"/>
                <ItemRef ItemOID="IT.EX.EXDOSU" Mandatory="No" MethodOID="MT.EXDOSU" OrderNumber="7"/>
                <ItemRef ItemOID="IT.EX.EXDOSFRM" Mandatory="No" OrderNumber="8"/>
                <ItemRef ItemOID="IT.EX.EXSTDTC" Mandatory="No" OrderNumber="9" KeySequence="3"/>
                <ItemRef ItemOID="IT.EX.EXENDTC" Mandatory="No" OrderNumber="10" KeySequence="4"/>
                <ItemRef ItemOID="IT.EX.EXSTDY" Mandatory="No" MethodOID="MT.EXSTDY" OrderNumber="11"/>
                <ItemRef ItemOID="IT.EX.EXENDY" Mandatory="No" MethodOID="MT.EXENDY" OrderNumber="12"/>
                <def:Class Name="INTERVENTIONS"/>
                <def:leaf ID="LF.EX" xlink:href="ex.xpt">
                    <def:title>ex.xpt</def:title>
                </def:leaf>
            </ItemGroupDef>
            <ItemGroupDef OID="IG.IE" Name="IE" Repeating="Yes" Domain="IE" SASDatasetName="IE" IsReferenceData="No"
                          Purpose="Tabulation"
                          def:Structure="One record per inclusion/exclusion criterion not met per subject"
                          def:ArchiveLocationID="LF.IE" def:CommentOID="COM.STD1" def:StandardOID="STD.1">
                <Description>
                    <TranslatedText xml:lang="en">Inclusion/Exclusion Criteria Not Met</TranslatedText>
                </Description>
                <ItemRef ItemOID="IT.IE.STUDYID" Mandatory="Yes" OrderNumber="1" KeySequence="1"/>
                <ItemRef ItemOID="IT.IE.DOMAIN" Mandatory="Yes" OrderNumber="2"/>
                <ItemRef ItemOID="IT.IE.USUBJID" Mandatory="Yes" MethodOID="MT.USUBJID" OrderNumber="3"
                         KeySequence="2"/>
                <ItemRef ItemOID="IT.IE.IESEQ" Mandatory="Yes" MethodOID="MT.SEQ" OrderNumber="4"/>
                <ItemRef ItemOID="IT.IE.IETESTCD" Mandatory="Yes" OrderNumber="5" KeySequence="3"/>
                <ItemRef ItemOID="IT.IE.IETEST" Mandatory="Yes" OrderNumber="6"/>
                <ItemRef ItemOID="IT.IE.IECAT" Mandatory="Yes" OrderNumber="7"/>
                <ItemRef ItemOID="IT.IE.IEORRES" Mandatory="Yes" OrderNumber="8"/>
                <ItemRef ItemOID="IT.IE.IESTRESC" Mandatory="Yes" MethodOID="MT.IESTRESC" OrderNumber="9"/>
                <ItemRef ItemOID="IT.IE.VISITNUM" Mandatory="No" OrderNumber="10"/>
                <ItemRef ItemOID="IT.IE.VISIT" Mandatory="No" OrderNumber="11"/>
                <ItemRef ItemOID="IT.IE.IEDTC" Mandatory="No" OrderNumber="12"/>
                <def:Class Name="FINDINGS"/>
                <def:leaf ID="LF.IE" xlink:href="ie.xpt">
                    <def:title>ie.xpt</def:title>
                </def:leaf>
            </ItemGroupDef>
            <ItemGroupDef OID="IG.LB" Name="LB" Repeating="Yes" Domain="LB" SASDatasetName="LB" IsReferenceData="No"
                          Purpose="Tabulation" def:Structure="One record per analyte per visit per subject"
                          def:ArchiveLocationID="LF.LB" def:CommentOID="COM.STD1" def:StandardOID="STD.1">
                <Description>
                    <TranslatedText xml:lang="en">Laboratory Tests Results</TranslatedText>
                </Description>
                <ItemRef ItemOID="IT.LB.STUDYID" Mandatory="Yes" OrderNumber="1" KeySequence="1"/>
                <ItemRef ItemOID="IT.LB.DOMAIN" Mandatory="Yes" OrderNumber="2"/>
                <ItemRef ItemOID="IT.LB.USUBJID" Mandatory="Yes" MethodOID="MT.USUBJID" OrderNumber="3"
                         KeySequence="2"/>
                <ItemRef ItemOID="IT.LB.LBSEQ" Mandatory="Yes" MethodOID="MT.SEQ" OrderNumber="4"/>
                <ItemRef ItemOID="IT.LB.LBREFID" Mandatory="No" OrderNumber="5"/>
                <ItemRef ItemOID="IT.LB.LBTESTCD" Mandatory="Yes" OrderNumber="6" KeySequence="5"/>
                <ItemRef ItemOID="IT.LB.LBTEST" Mandatory="Yes" OrderNumber="7"/>
                <ItemRef ItemOID="IT.LB.LBCAT" Mandatory="No" OrderNumber="8" KeySequence="3"/>
                <ItemRef ItemOID="IT.LB.LBORRES" Mandatory="No" OrderNumber="9"/>
                <ItemRef ItemOID="IT.LB.LBORRESU" Mandatory="No" OrderNumber="10"/>
                <ItemRef ItemOID="IT.LB.LBORNRLO" Mandatory="No" OrderNumber="11"/>
                <ItemRef ItemOID="IT.LB.LBORNRHI" Mandatory="No" OrderNumber="12"/>
                <ItemRef ItemOID="IT.LB.LBSTRESC" Mandatory="No" OrderNumber="13"/>
                <ItemRef ItemOID="IT.LB.LBSTRESN" Mandatory="No" OrderNumber="14"/>
                <ItemRef ItemOID="IT.LB.LBSTRESU" Mandatory="No" OrderNumber="15"/>
                <ItemRef ItemOID="IT.LB.LBSTNRLO" Mandatory="No" OrderNumber="16"/>
                <ItemRef ItemOID="IT.LB.LBSTNRHI" Mandatory="No" OrderNumber="17"/>
                <ItemRef ItemOID="IT.LB.LBSTNRC" Mandatory="No" OrderNumber="18"/>
                <ItemRef ItemOID="IT.LB.LBNRIND" Mandatory="No" MethodOID="MT.LBNRIND" OrderNumber="19"/>
                <ItemRef ItemOID="IT.LB.LBSPEC" Mandatory="No" OrderNumber="20"/>
                <ItemRef ItemOID="IT.LB.LBMETHOD" Mandatory="No" OrderNumber="21" KeySequence="4"/>
                <ItemRef ItemOID="IT.LB.LBBLFL" Mandatory="No" MethodOID="MT.LBBLFL" OrderNumber="22"/>
                <ItemRef ItemOID="IT.LB.LBFAST" Mandatory="No" OrderNumber="23"/>
                <ItemRef ItemOID="IT.LB.VISITNUM" Mandatory="No" OrderNumber="24" KeySequence="7"/>
                <ItemRef ItemOID="IT.LB.VISIT" Mandatory="No" OrderNumber="25"/>
                <ItemRef ItemOID="IT.LB.VISITDY" Mandatory="No" OrderNumber="26"/>
                <ItemRef ItemOID="IT.LB.LBDTC" Mandatory="No" OrderNumber="27" KeySequence="6"/>
                <ItemRef ItemOID="IT.LB.LBDY" Mandatory="No" MethodOID="MT.LBDY" OrderNumber="28"/>
                <def:Class Name="FINDINGS"/>
                <def:leaf ID="LF.LB" xlink:href="lb.xpt">
                    <def:title>lb.xpt</def:title>
                </def:leaf>
            </ItemGroupDef>
            <ItemGroupDef OID="IG.MH" Name="MH" Repeating="Yes" Domain="MH" SASDatasetName="MH" IsReferenceData="No"
                          Purpose="Tabulation" def:Structure="One record per medical history event per subject"
                          def:ArchiveLocationID="LF.MH" def:CommentOID="COM.STD1" def:StandardOID="STD.1">
                <Description>
                    <TranslatedText xml:lang="en">Medical History</TranslatedText>
                </Description>
                <ItemRef ItemOID="IT.MH.STUDYID" Mandatory="Yes" OrderNumber="1" KeySequence="1"/>
                <ItemRef ItemOID="IT.MH.DOMAIN" Mandatory="Yes" OrderNumber="2"/>
                <ItemRef ItemOID="IT.MH.USUBJID" Mandatory="Yes" MethodOID="MT.USUBJID" OrderNumber="3"
                         KeySequence="2"/>
                <ItemRef ItemOID="IT.MH.MHSEQ" Mandatory="Yes" MethodOID="MT.SEQ" OrderNumber="4"/>
                <ItemRef ItemOID="IT.MH.MHTERM" Mandatory="Yes" OrderNumber="5" KeySequence="4"/>
                <ItemRef ItemOID="IT.MH.MHCAT" Mandatory="No" OrderNumber="6" KeySequence="3"/>
                <ItemRef ItemOID="IT.MH.MHPRESP" Mandatory="No" OrderNumber="7"/>
                <ItemRef ItemOID="IT.MH.MHOCCUR" Mandatory="No" OrderNumber="8"/>
                <ItemRef ItemOID="IT.MH.MHBODSYS" Mandatory="No" OrderNumber="9"/>
                <ItemRef ItemOID="IT.MH.MHDTC" Mandatory="No" OrderNumber="10" KeySequence="5"/>
                <ItemRef ItemOID="IT.MH.MHSTDTC" Mandatory="No" OrderNumber="11" KeySequence="6"/>
                <ItemRef ItemOID="IT.MH.MHENRF" Mandatory="No" OrderNumber="12"/>
                <def:Class Name="EVENTS"/>
                <def:leaf ID="LF.MH" xlink:href="mh.xpt">
                    <def:title>mh.xpt</def:title>
                </def:leaf>
            </ItemGroupDef>
            <ItemGroupDef OID="IG.PE" Name="PE" Repeating="Yes" Domain="PE" SASDatasetName="PE" IsReferenceData="No"
                          Purpose="Tabulation"
                          def:Structure="One record per body system or abnormality per visit per subject"
                          def:ArchiveLocationID="LF.PE" def:CommentOID="COM.STD1" def:StandardOID="STD.1">
                <Description>
                    <TranslatedText xml:lang="en">Physical Examination</TranslatedText>
                </Description>
                <ItemRef ItemOID="IT.PE.STUDYID" Mandatory="Yes" OrderNumber="1" KeySequence="1"/>
                <ItemRef ItemOID="IT.PE.DOMAIN" Mandatory="Yes" OrderNumber="2"/>
                <ItemRef ItemOID="IT.PE.USUBJID" Mandatory="Yes" MethodOID="MT.USUBJID" OrderNumber="3"
                         KeySequence="2"/>
                <ItemRef ItemOID="IT.PE.PESEQ" Mandatory="Yes" MethodOID="MT.SEQ" OrderNumber="4"/>
                <ItemRef ItemOID="IT.PE.PETESTCD" Mandatory="Yes" OrderNumber="5" KeySequence="3"/>
                <ItemRef ItemOID="IT.PE.PETEST" Mandatory="Yes" OrderNumber="6"/>
                <ItemRef ItemOID="IT.PE.PEORRES" Mandatory="No" OrderNumber="7"/>
                <ItemRef ItemOID="IT.PE.PESTRESC" Mandatory="No" MethodOID="MT.PESTRESC" OrderNumber="8"/>
                <ItemRef ItemOID="IT.PE.VISITNUM" Mandatory="No" OrderNumber="9" KeySequence="5"/>
                <ItemRef ItemOID="IT.PE.VISIT" Mandatory="No" OrderNumber="10"/>
                <ItemRef ItemOID="IT.PE.VISITDY" Mandatory="No" OrderNumber="11"/>
                <ItemRef ItemOID="IT.PE.PEDTC" Mandatory="No" OrderNumber="12" KeySequence="4"/>
                <ItemRef ItemOID="IT.PE.PEDY" Mandatory="No" MethodOID="MT.PEDY" OrderNumber="13"/>
                <def:Class Name="FINDINGS"/>
                <def:leaf ID="LF.PE" xlink:href="pe.xpt">
                    <def:title>pe.xpt</def:title>
                </def:leaf>
            </ItemGroupDef>
            <ItemGroupDef OID="IG.QSCG" Name="QSCG" Repeating="Yes" Domain="QSCG" SASDatasetName="QSCG"
                          IsReferenceData="No" Purpose="Tabulation"
                          def:Structure="One record per questionnaire per question per visit per subject"
                          def:ArchiveLocationID="LF.QSCG" def:CommentOID="COM.DOMAIN.QS" def:StandardOID="STD.1">
                <Description>
                    <TranslatedText xml:lang="en">Questionnaire-QSCG</TranslatedText>
                </Description>
                <ItemRef ItemOID="IT.QSCG.STUDYID" Mandatory="Yes" OrderNumber="1" KeySequence="1"/>
                <ItemRef ItemOID="IT.QSCG.DOMAIN" Mandatory="Yes" OrderNumber="2"/>
                <ItemRef ItemOID="IT.QSCG.USUBJID" Mandatory="Yes" MethodOID="MT.USUBJID" OrderNumber="3"
                         KeySequence="2"/>
                <ItemRef ItemOID="IT.QSCG.QSSEQ" Mandatory="Yes" MethodOID="MT.SEQ" OrderNumber="4"/>
                <ItemRef ItemOID="IT.QSCG.QSTESTCD" Mandatory="Yes" OrderNumber="5" KeySequence="4"/>
                <ItemRef ItemOID="IT.QSCG.QSTEST" Mandatory="Yes" OrderNumber="6"/>
                <ItemRef ItemOID="IT.QSCG.QSCAT" Mandatory="Yes" OrderNumber="7" KeySequence="3"/>
                <ItemRef ItemOID="IT.QSCG.QSORRES" Mandatory="No" OrderNumber="9"/>
                <ItemRef ItemOID="IT.QSCG.QSSTRESC" Mandatory="No" MethodOID="MT.QSSTRESC" OrderNumber="10"/>
                <ItemRef ItemOID="IT.QSCG.QSSTRESN" Mandatory="No" MethodOID="MT.QSSTRESN" OrderNumber="11"/>
                <ItemRef ItemOID="IT.QSCG.VISITNUM" Mandatory="No" OrderNumber="13" KeySequence="6"/>
                <ItemRef ItemOID="IT.QSCG.VISIT" Mandatory="No" OrderNumber="14"/>
                <ItemRef ItemOID="IT.QSCG.VISITDY" Mandatory="No" OrderNumber="15"/>
                <ItemRef ItemOID="IT.QSCG.QSDTC" Mandatory="No" OrderNumber="16" KeySequence="5"/>
                <ItemRef ItemOID="IT.QSCG.QSDY" Mandatory="No" MethodOID="MT.QSDY" OrderNumber="17"/>
                <def:Class Name="FINDINGS"/>
                <def:leaf ID="LF.QSCG" xlink:href="qscg.xpt">
                    <def:title>qscg.xpt</def:title>
                </def:leaf>
            </ItemGroupDef>
            <ItemGroupDef OID="IG.QSCS" Name="QSCS" Repeating="Yes" Domain="QSCS" SASDatasetName="QSCS"
                          IsReferenceData="No" Purpose="Tabulation"
                          def:Structure="One record per questionnaire per question per visit per subject"
                          def:ArchiveLocationID="LF.QSCS" def:CommentOID="COM.DOMAIN.QS" def:StandardOID="STD.1">
                <Description>
                    <TranslatedText xml:lang="en">Questionnaire-QSCS</TranslatedText>
                </Description>
                <ItemRef ItemOID="IT.QSCS.STUDYID" Mandatory="Yes" OrderNumber="1" KeySequence="1"/>
                <ItemRef ItemOID="IT.QSCS.DOMAIN" Mandatory="Yes" OrderNumber="2"/>
                <ItemRef ItemOID="IT.QSCS.USUBJID" Mandatory="Yes" MethodOID="MT.USUBJID" OrderNumber="3"
                         KeySequence="2"/>
                <ItemRef ItemOID="IT.QSCS.QSSEQ" Mandatory="Yes" MethodOID="MT.SEQ" OrderNumber="4"/>
                <ItemRef ItemOID="IT.QSCS.QSTESTCD" Mandatory="Yes" OrderNumber="5" KeySequence="4"/>
                <ItemRef ItemOID="IT.QSCS.QSTEST" Mandatory="Yes" OrderNumber="6"/>
                <ItemRef ItemOID="IT.QSCS.QSCAT" Mandatory="Yes" OrderNumber="7" KeySequence="3"/>
                <ItemRef ItemOID="IT.QSCS.QSSCAT" Mandatory="No" OrderNumber="8"/>
                <ItemRef ItemOID="IT.QSCS.QSORRES" Mandatory="No" OrderNumber="9"/>
                <ItemRef ItemOID="IT.QSCS.QSSTRESC" Mandatory="No" MethodOID="MT.QSSTRESC" OrderNumber="10"/>
                <ItemRef ItemOID="IT.QSCS.QSSTRESN" Mandatory="No" MethodOID="MT.QSSTRESN" OrderNumber="11"/>
                <ItemRef ItemOID="IT.QSCS.QSBLFL" Mandatory="No" MethodOID="MT.QSBLFL" OrderNumber="12"/>
                <ItemRef ItemOID="IT.QSCS.VISITNUM" Mandatory="No" OrderNumber="13" KeySequence="6"/>
                <ItemRef ItemOID="IT.QSCS.VISIT" Mandatory="No" OrderNumber="14"/>
                <ItemRef ItemOID="IT.QSCS.VISITDY" Mandatory="No" OrderNumber="15"/>
                <ItemRef ItemOID="IT.QSCS.QSDTC" Mandatory="No" OrderNumber="16" KeySequence="5"/>
                <ItemRef ItemOID="IT.QSCS.QSDY" Mandatory="No" MethodOID="MT.QSDY" OrderNumber="17"/>
                <ItemRef ItemOID="IT.QSCS.QSEVLINT" Mandatory="No" OrderNumber="18"/>
                <def:Class Name="FINDINGS"/>
                <def:leaf ID="LF.QSCS" xlink:href="qscs.xpt">
                    <def:title>qscs.xpt</def:title>
                </def:leaf>
            </ItemGroupDef>
            <ItemGroupDef OID="IG.QSMM" Name="QSMM" Repeating="Yes" Domain="QSMM" SASDatasetName="QSMM"
                          IsReferenceData="No" Purpose="Tabulation"
                          def:Structure="One record per questionnaire per question per visit per subject"
                          def:ArchiveLocationID="LF.QSMM" def:CommentOID="COM.DOMAIN.QS" def:StandardOID="STD.1">
                <Description>
                    <TranslatedText xml:lang="en">Questionnaire-QSMM</TranslatedText>
                </Description>
                <ItemRef ItemOID="IT.QSMM.STUDYID" Mandatory="Yes" OrderNumber="1" KeySequence="1"/>
                <ItemRef ItemOID="IT.QSMM.DOMAIN" Mandatory="Yes" OrderNumber="2"/>
                <ItemRef ItemOID="IT.QSMM.USUBJID" Mandatory="Yes" MethodOID="MT.USUBJID" OrderNumber="3"
                         KeySequence="2"/>
                <ItemRef ItemOID="IT.QSMM.QSSEQ" Mandatory="Yes" MethodOID="MT.SEQ" OrderNumber="4"/>
                <ItemRef ItemOID="IT.QSMM.QSTESTCD" Mandatory="Yes" OrderNumber="5" KeySequence="4"/>
                <ItemRef ItemOID="IT.QSMM.QSTEST" Mandatory="Yes" OrderNumber="6"/>
                <ItemRef ItemOID="IT.QSMM.QSCAT" Mandatory="Yes" OrderNumber="7" KeySequence="3"/>
                <ItemRef ItemOID="IT.QSMM.QSORRES" Mandatory="No" OrderNumber="9"/>
                <ItemRef ItemOID="IT.QSMM.QSSTRESC" Mandatory="No" MethodOID="MT.QSSTRESC" OrderNumber="10"/>
                <ItemRef ItemOID="IT.QSMM.QSSTRESN" Mandatory="No" MethodOID="MT.QSSTRESN" OrderNumber="11"/>
                <ItemRef ItemOID="IT.QSMM.QSBLFL" Mandatory="No" MethodOID="MT.QSBLFL" OrderNumber="12"/>
                <ItemRef ItemOID="IT.QSMM.VISITNUM" Mandatory="No" OrderNumber="13" KeySequence="6"/>
                <ItemRef ItemOID="IT.QSMM.VISIT" Mandatory="No" OrderNumber="14"/>
                <ItemRef ItemOID="IT.QSMM.VISITDY" Mandatory="No" OrderNumber="15"/>
                <ItemRef ItemOID="IT.QSMM.QSDTC" Mandatory="No" OrderNumber="16" KeySequence="5"/>
                <ItemRef ItemOID="IT.QSMM.QSDY" Mandatory="No" MethodOID="MT.QSDY" OrderNumber="17"/>
                <def:Class Name="FINDINGS"/>
                <def:leaf ID="LF.QSMM" xlink:href="qsmm.xpt">
                    <def:title>qsmm.xpt</def:title>
                </def:leaf>
            </ItemGroupDef>
            <ItemGroupDef OID="IG.RELREC" Name="RELREC" Repeating="Yes" Domain="RELREC" SASDatasetName="RELREC"
                          IsReferenceData="No" Purpose="Tabulation"
                          def:Structure="One record per related record, group of records or dataset"
                          def:ArchiveLocationID="LF.RELREC" def:CommentOID="COM.STD1" def:StandardOID="STD.1">
                <Description>
                    <TranslatedText xml:lang="en">Related Records</TranslatedText>
                </Description>
                <ItemRef ItemOID="IT.RELREC.STUDYID" Mandatory="Yes" OrderNumber="1" KeySequence="1"/>
                <ItemRef ItemOID="IT.RELREC.RDOMAIN" Mandatory="Yes" MethodOID="MT.RDOMAIN" OrderNumber="2"
                         KeySequence="2"/>
                <ItemRef ItemOID="IT.RELREC.USUBJID" Mandatory="No" MethodOID="MT.USUBJID" OrderNumber="3"
                         KeySequence="3"/>
                <ItemRef ItemOID="IT.RELREC.IDVAR" Mandatory="Yes" OrderNumber="4" KeySequence="4"/>
                <ItemRef ItemOID="IT.RELREC.IDVARVAL" Mandatory="No" OrderNumber="5" KeySequence="5"/>
                <ItemRef ItemOID="IT.RELREC.RELTYPE" Mandatory="No" OrderNumber="6"/>
                <ItemRef ItemOID="IT.RELREC.RELID" Mandatory="Yes" MethodOID="MT.RELID" OrderNumber="7"
                         KeySequence="6"/>
                <def:Class Name="RELATIONSHIP"/>
                <def:leaf ID="LF.RELREC" xlink:href="relrec.xpt">
                    <def:title>relrec.xpt</def:title>
                </def:leaf>
            </ItemGroupDef>
            <ItemGroupDef OID="IG.SC" Name="SC" Repeating="No" Domain="SC" SASDatasetName="SC" IsReferenceData="No"
                          Purpose="Tabulation" def:Structure="One record per characteristic per subject"
                          def:ArchiveLocationID="LF.SC" def:CommentOID="COM.STD1" def:StandardOID="STD.1">
                <Description>
                    <TranslatedText xml:lang="en">Subject Characteristics</TranslatedText>
                </Description>
                <ItemRef ItemOID="IT.SC.STUDYID" Mandatory="Yes" OrderNumber="1" KeySequence="1"/>
                <ItemRef ItemOID="IT.SC.DOMAIN" Mandatory="Yes" OrderNumber="2"/>
                <ItemRef ItemOID="IT.SC.USUBJID" Mandatory="Yes" MethodOID="MT.USUBJID" OrderNumber="3"
                         KeySequence="2"/>
                <ItemRef ItemOID="IT.SC.SCSEQ" Mandatory="Yes" MethodOID="MT.SEQ" OrderNumber="4"/>
                <ItemRef ItemOID="IT.SC.SCTESTCD" Mandatory="Yes" OrderNumber="5" KeySequence="3"/>
                <ItemRef ItemOID="IT.SC.SCTEST" Mandatory="Yes" OrderNumber="6"/>
                <ItemRef ItemOID="IT.SC.SCORRES" Mandatory="No" OrderNumber="7"/>
                <ItemRef ItemOID="IT.SC.SCSTRESC" Mandatory="No" MethodOID="MT.SCSTRESC" OrderNumber="8"/>
                <ItemRef ItemOID="IT.SC.SCDTC" Mandatory="No" OrderNumber="9"/>
                <ItemRef ItemOID="IT.SC.SCDY" Mandatory="No" MethodOID="MT.SCDY" OrderNumber="10"/>
                <def:Class Name="FINDINGS"/>
                <def:leaf ID="LF.SC" xlink:href="sc.xpt">
                    <def:title>sc.xpt</def:title>
                </def:leaf>
            </ItemGroupDef>
            <ItemGroupDef OID="IG.SE" Name="SE" Repeating="Yes" Domain="SE" SASDatasetName="SE" IsReferenceData="No"
                          Purpose="Tabulation" def:Structure="One record per actual Element per subject"
                          def:ArchiveLocationID="LF.SE" def:CommentOID="COM.STD1" def:StandardOID="STD.1">
                <Description>
                    <TranslatedText xml:lang="en">Subject Elements</TranslatedText>
                </Description>
                <ItemRef ItemOID="IT.SE.STUDYID" Mandatory="Yes" OrderNumber="1" KeySequence="1"/>
                <ItemRef ItemOID="IT.SE.DOMAIN" Mandatory="Yes" OrderNumber="2"/>
                <ItemRef ItemOID="IT.SE.USUBJID" Mandatory="Yes" MethodOID="MT.USUBJID" OrderNumber="3"
                         KeySequence="2"/>
                <ItemRef ItemOID="IT.SE.SESEQ" Mandatory="Yes" MethodOID="MT.SEQ" OrderNumber="4"/>
                <ItemRef ItemOID="IT.SE.ETCD" Mandatory="Yes" OrderNumber="5" KeySequence="6"/>
                <ItemRef ItemOID="IT.SE.ELEMENT" Mandatory="No" OrderNumber="6"/>
                <ItemRef ItemOID="IT.SE.SESTDTC" Mandatory="Yes" MethodOID="MT.SESTDTC" OrderNumber="7"
                         KeySequence="3"/>
                <ItemRef ItemOID="IT.SE.SEENDTC" Mandatory="No" MethodOID="MT.SEENDTC" OrderNumber="8" KeySequence="4"/>
                <ItemRef ItemOID="IT.SE.TAETORD" Mandatory="No" OrderNumber="9" KeySequence="5"/>
                <def:Class Name="SPECIAL PURPOSE"/>
                <def:leaf ID="LF.SE" xlink:href="se.xpt">
                    <def:title>se.xpt</def:title>
                </def:leaf>
            </ItemGroupDef>
            <ItemGroupDef OID="IG.SUPPAE" Name="SUPPAE" Repeating="Yes" Domain="SUPPAE" SASDatasetName="SUPPAE"
                          IsReferenceData="No" Purpose="Tabulation"
                          def:Structure="One record per IDVAR, IDVARVAL, and QNAM value per subject"
                          def:ArchiveLocationID="LF.SUPPAE" def:CommentOID="COM.STD1" def:StandardOID="STD.1">
                <Description>
                    <TranslatedText xml:lang="en">Supplemental Qualifiers for AE</TranslatedText>
                </Description>
                <ItemRef ItemOID="IT.SUPPAE.STUDYID" Mandatory="Yes" OrderNumber="1" KeySequence="1"/>
                <ItemRef ItemOID="IT.SUPPAE.RDOMAIN" Mandatory="Yes" MethodOID="MT.RDOMAIN" OrderNumber="2"
                         KeySequence="2"/>
                <ItemRef ItemOID="IT.SUPPAE.USUBJID" Mandatory="Yes" MethodOID="MT.USUBJID" OrderNumber="3"
                         KeySequence="3"/>
                <ItemRef ItemOID="IT.SUPPAE.IDVAR" Mandatory="No" OrderNumber="4" KeySequence="4"/>
                <ItemRef ItemOID="IT.SUPPAE.IDVARVAL" Mandatory="No" OrderNumber="5" KeySequence="5"/>
                <ItemRef ItemOID="IT.SUPPAE.QNAM" Mandatory="Yes" OrderNumber="6" KeySequence="6"/>
                <ItemRef ItemOID="IT.SUPPAE.QLABEL" Mandatory="Yes" OrderNumber="7"/>
                <ItemRef ItemOID="IT.SUPPAE.QVAL" Mandatory="Yes" OrderNumber="8"/>
                <ItemRef ItemOID="IT.SUPPAE.QORIG" Mandatory="Yes" OrderNumber="9"/>
                <ItemRef ItemOID="IT.SUPPAE.QEVAL" Mandatory="No" OrderNumber="10"/>
                <def:Class Name="RELATIONSHIP"/>
                <def:leaf ID="LF.SUPPAE" xlink:href="suppae.xpt">
                    <def:title>suppae.xpt</def:title>
                </def:leaf>
            </ItemGroupDef>
            <ItemGroupDef OID="IG.SUPPCM" Name="SUPPCM" Repeating="Yes" Domain="SUPPCM" SASDatasetName="SUPPCM"
                          IsReferenceData="No" Purpose="Tabulation"
                          def:Structure="One record per IDVAR, IDVARVAL, and QNAM value per subject"
                          def:ArchiveLocationID="LF.SUPPCM" def:CommentOID="COM.STD1" def:StandardOID="STD.1">
                <Description>
                    <TranslatedText xml:lang="en">Supplemental Qualifiers for CM</TranslatedText>
                </Description>
                <ItemRef ItemOID="IT.SUPPCM.STUDYID" Mandatory="Yes" OrderNumber="1" KeySequence="1"/>
                <ItemRef ItemOID="IT.SUPPCM.RDOMAIN" Mandatory="Yes" MethodOID="MT.RDOMAIN" OrderNumber="2"
                         KeySequence="2"/>
                <ItemRef ItemOID="IT.SUPPCM.USUBJID" Mandatory="Yes" MethodOID="MT.USUBJID" OrderNumber="3"
                         KeySequence="3"/>
                <ItemRef ItemOID="IT.SUPPCM.IDVAR" Mandatory="No" OrderNumber="4" KeySequence="4"/>
                <ItemRef ItemOID="IT.SUPPCM.IDVARVAL" Mandatory="No" OrderNumber="5" KeySequence="5"/>
                <ItemRef ItemOID="IT.SUPPCM.QNAM" Mandatory="Yes" OrderNumber="6" KeySequence="6"/>
                <ItemRef ItemOID="IT.SUPPCM.QLABEL" Mandatory="Yes" OrderNumber="7"/>
                <ItemRef ItemOID="IT.SUPPCM.QVAL" Mandatory="Yes" OrderNumber="8"/>
                <ItemRef ItemOID="IT.SUPPCM.QORIG" Mandatory="Yes" OrderNumber="9"/>
                <ItemRef ItemOID="IT.SUPPCM.QEVAL" Mandatory="No" OrderNumber="10"/>
                <def:Class Name="RELATIONSHIP"/>
                <def:leaf ID="LF.SUPPCM" xlink:href="suppcm.xpt">
                    <def:title>suppcm.xpt</def:title>
                </def:leaf>
            </ItemGroupDef>
            <ItemGroupDef OID="IG.SUPPDM" Name="SUPPDM" Repeating="Yes" Domain="SUPPDM" SASDatasetName="SUPPDM"
                          IsReferenceData="No" Purpose="Tabulation"
                          def:Structure="One record per IDVAR, IDVARVAL, and QNAM value per subject"
                          def:ArchiveLocationID="LF.SUPPDM" def:CommentOID="COM.STD1" def:StandardOID="STD.1">
                <Description>
                    <TranslatedText xml:lang="en">Supplemental Qualifiers for DM</TranslatedText>
                </Description>
                <ItemRef ItemOID="IT.SUPPDM.STUDYID" Mandatory="Yes" OrderNumber="1" KeySequence="1"/>
                <ItemRef ItemOID="IT.SUPPDM.RDOMAIN" Mandatory="Yes" MethodOID="MT.RDOMAIN" OrderNumber="2"
                         KeySequence="2"/>
                <ItemRef ItemOID="IT.SUPPDM.USUBJID" Mandatory="Yes" MethodOID="MT.USUBJID" OrderNumber="3"
                         KeySequence="3"/>
                <ItemRef ItemOID="IT.SUPPDM.IDVAR" Mandatory="No" OrderNumber="4" KeySequence="4"/>
                <ItemRef ItemOID="IT.SUPPDM.IDVARVAL" Mandatory="No" OrderNumber="5" KeySequence="5"/>
                <ItemRef ItemOID="IT.SUPPDM.QNAM" Mandatory="Yes" OrderNumber="6" KeySequence="6"/>
                <ItemRef ItemOID="IT.SUPPDM.QLABEL" Mandatory="Yes" OrderNumber="7"/>
                <ItemRef ItemOID="IT.SUPPDM.QVAL" Mandatory="Yes" OrderNumber="8"/>
                <ItemRef ItemOID="IT.SUPPDM.QORIG" Mandatory="Yes" OrderNumber="9"/>
                <ItemRef ItemOID="IT.SUPPDM.QEVAL" Mandatory="No" OrderNumber="10"/>
                <def:Class Name="RELATIONSHIP"/>
                <def:leaf ID="LF.SUPPDM" xlink:href="suppdm.xpt">
                    <def:title>suppdm.xpt</def:title>
                </def:leaf>
            </ItemGroupDef>
            <ItemGroupDef OID="IG.SUPPEG" Name="SUPPEG" Repeating="Yes" Domain="SUPPEG" SASDatasetName="SUPPEG"
                          IsReferenceData="No" Purpose="Tabulation"
                          def:Structure="One record per IDVAR, IDVARVAL, and QNAM value per subject"
                          def:ArchiveLocationID="LF.SUPPEG" def:CommentOID="COM.STD1" def:StandardOID="STD.1">
                <Description>
                    <TranslatedText xml:lang="en">Supplemental Qualifiers for EG</TranslatedText>
                </Description>
                <ItemRef ItemOID="IT.SUPPEG.STUDYID" Mandatory="Yes" OrderNumber="1" KeySequence="1"/>
                <ItemRef ItemOID="IT.SUPPEG.RDOMAIN" Mandatory="Yes" MethodOID="MT.RDOMAIN" OrderNumber="2"
                         KeySequence="2"/>
                <ItemRef ItemOID="IT.SUPPEG.USUBJID" Mandatory="Yes" MethodOID="MT.USUBJID" OrderNumber="3"
                         KeySequence="3"/>
                <ItemRef ItemOID="IT.SUPPEG.IDVAR" Mandatory="No" OrderNumber="4" KeySequence="4"/>
                <ItemRef ItemOID="IT.SUPPEG.IDVARVAL" Mandatory="No" OrderNumber="5" KeySequence="5"/>
                <ItemRef ItemOID="IT.SUPPEG.QNAM" Mandatory="Yes" OrderNumber="6" KeySequence="6"/>
                <ItemRef ItemOID="IT.SUPPEG.QLABEL" Mandatory="Yes" OrderNumber="7"/>
                <ItemRef ItemOID="IT.SUPPEG.QVAL" Mandatory="Yes" OrderNumber="8"/>
                <ItemRef ItemOID="IT.SUPPEG.QORIG" Mandatory="Yes" OrderNumber="9"/>
                <ItemRef ItemOID="IT.SUPPEG.QEVAL" Mandatory="No" OrderNumber="10"/>
                <def:Class Name="RELATIONSHIP"/>
                <def:leaf ID="LF.SUPPEG" xlink:href="suppeg.xpt">
                    <def:title>suppeg.xpt</def:title>
                </def:leaf>
            </ItemGroupDef>
            <ItemGroupDef OID="IG.SUPPEX" Name="SUPPEX" Repeating="Yes" Domain="SUPPEX" SASDatasetName="SUPPEX"
                          IsReferenceData="No" Purpose="Tabulation"
                          def:Structure="One record per IDVAR, IDVARVAL, and QNAM value per subject"
                          def:ArchiveLocationID="LF.SUPPEX" def:CommentOID="COM.STD1" def:StandardOID="STD.1">
                <Description>
                    <TranslatedText xml:lang="en">Supplemental Qualifiers for EX</TranslatedText>
                </Description>
                <ItemRef ItemOID="IT.SUPPEX.STUDYID" Mandatory="Yes" OrderNumber="1" KeySequence="1"/>
                <ItemRef ItemOID="IT.SUPPEX.RDOMAIN" Mandatory="Yes" MethodOID="MT.RDOMAIN" OrderNumber="2"
                         KeySequence="2"/>
                <ItemRef ItemOID="IT.SUPPEX.USUBJID" Mandatory="Yes" MethodOID="MT.USUBJID" OrderNumber="3"
                         KeySequence="3"/>
                <ItemRef ItemOID="IT.SUPPEX.IDVAR" Mandatory="No" OrderNumber="4" KeySequence="4"/>
                <ItemRef ItemOID="IT.SUPPEX.IDVARVAL" Mandatory="No" OrderNumber="5" KeySequence="5"/>
                <ItemRef ItemOID="IT.SUPPEX.QNAM" Mandatory="Yes" OrderNumber="6" KeySequence="6"/>
                <ItemRef ItemOID="IT.SUPPEX.QLABEL" Mandatory="Yes" OrderNumber="7"/>
                <ItemRef ItemOID="IT.SUPPEX.QVAL" Mandatory="Yes" OrderNumber="8"/>
                <ItemRef ItemOID="IT.SUPPEX.QORIG" Mandatory="Yes" OrderNumber="9"/>
                <ItemRef ItemOID="IT.SUPPEX.QEVAL" Mandatory="No" OrderNumber="10"/>
                <def:Class Name="RELATIONSHIP"/>
                <def:leaf ID="LF.SUPPEX" xlink:href="suppex.xpt">
                    <def:title>suppex.xpt</def:title>
                </def:leaf>
            </ItemGroupDef>
            <ItemGroupDef OID="IG.SUPPLB" Name="SUPPLB" Repeating="Yes" Domain="SUPPLB" SASDatasetName="SUPPLB"
                          IsReferenceData="No" Purpose="Tabulation"
                          def:Structure="One record per IDVAR, IDVARVAL, and QNAM value per subject"
                          def:ArchiveLocationID="LF.SUPPLB" def:CommentOID="COM.STD1" def:StandardOID="STD.1">
                <Description>
                    <TranslatedText xml:lang="en">Supplemental Qualifiers for LB</TranslatedText>
                </Description>
                <ItemRef ItemOID="IT.SUPPLB.STUDYID" Mandatory="Yes" OrderNumber="1" KeySequence="1"/>
                <ItemRef ItemOID="IT.SUPPLB.RDOMAIN" Mandatory="Yes" MethodOID="MT.RDOMAIN" OrderNumber="2"
                         KeySequence="2"/>
                <ItemRef ItemOID="IT.SUPPLB.USUBJID" Mandatory="Yes" MethodOID="MT.USUBJID" OrderNumber="3"
                         KeySequence="3"/>
                <ItemRef ItemOID="IT.SUPPLB.IDVAR" Mandatory="No" OrderNumber="4" KeySequence="4"/>
                <ItemRef ItemOID="IT.SUPPLB.IDVARVAL" Mandatory="No" OrderNumber="5" KeySequence="5"/>
                <ItemRef ItemOID="IT.SUPPLB.QNAM" Mandatory="Yes" OrderNumber="6" KeySequence="6"/>
                <ItemRef ItemOID="IT.SUPPLB.QLABEL" Mandatory="Yes" OrderNumber="7"/>
                <ItemRef ItemOID="IT.SUPPLB.QVAL" Mandatory="Yes" OrderNumber="8"/>
                <ItemRef ItemOID="IT.SUPPLB.QORIG" Mandatory="Yes" OrderNumber="9"/>
                <ItemRef ItemOID="IT.SUPPLB.QEVAL" Mandatory="No" OrderNumber="10"/>
                <def:Class Name="RELATIONSHIP"/>
                <def:leaf ID="LF.SUPPLB" xlink:href="supplb.xpt">
                    <def:title>supplb.xpt</def:title>
                </def:leaf>
            </ItemGroupDef>
            <ItemGroupDef OID="IG.SUPPQSCG" Name="SUPPQSCG" Repeating="Yes" Domain="SUPPQSCG" SASDatasetName="SUPPQSCG"
                          IsReferenceData="No" Purpose="Tabulation"
                          def:Structure="One record per IDVAR, IDVARVAL, and QNAM value per subject"
                          def:ArchiveLocationID="LF.SUPPQSCG" def:CommentOID="COM.STD1" def:StandardOID="STD.1">
                <Description>
                    <TranslatedText xml:lang="en">Supplemental Qualifiers for QSCG</TranslatedText>
                </Description>
                <ItemRef ItemOID="IT.SUPPQSCG.STUDYID" Mandatory="Yes" OrderNumber="1" KeySequence="1"/>
                <ItemRef ItemOID="IT.SUPPQSCG.RDOMAIN" Mandatory="Yes" MethodOID="MT.RDOMAIN" OrderNumber="2"
                         KeySequence="2"/>
                <ItemRef ItemOID="IT.SUPPQSCG.USUBJID" Mandatory="Yes" MethodOID="MT.USUBJID" OrderNumber="3"
                         KeySequence="3"/>
                <ItemRef ItemOID="IT.SUPPQSCG.IDVAR" Mandatory="No" OrderNumber="4" KeySequence="4"/>
                <ItemRef ItemOID="IT.SUPPQSCG.IDVARVAL" Mandatory="No" OrderNumber="5" KeySequence="5"/>
                <ItemRef ItemOID="IT.SUPPQSCG.QNAM" Mandatory="Yes" OrderNumber="6" KeySequence="6"/>
                <ItemRef ItemOID="IT.SUPPQSCG.QLABEL" Mandatory="Yes" OrderNumber="7"/>
                <ItemRef ItemOID="IT.SUPPQSCG.QVAL" Mandatory="Yes" OrderNumber="8"/>
                <ItemRef ItemOID="IT.SUPPQSCG.QORIG" Mandatory="Yes" OrderNumber="9"/>
                <ItemRef ItemOID="IT.SUPPQSCG.QEVAL" Mandatory="No" OrderNumber="10"/>
                <def:Class Name="RELATIONSHIP"/>
                <def:leaf ID="LF.SUPPQSCG" xlink:href="suppqscg.xpt">
                    <def:title>suppqscg.xpt</def:title>
                </def:leaf>
            </ItemGroupDef>
            <ItemGroupDef OID="IG.SUPPQSCS" Name="SUPPQSCS" Repeating="Yes" Domain="SUPPQSCS" SASDatasetName="SUPPQSCS"
                          IsReferenceData="No" Purpose="Tabulation"
                          def:Structure="One record per IDVAR, IDVARVAL, and QNAM value per subject"
                          def:ArchiveLocationID="LF.SUPPQSCS" def:CommentOID="COM.STD1" def:StandardOID="STD.1">
                <Description>
                    <TranslatedText xml:lang="en">Supplemental Qualifiers for QSCS</TranslatedText>
                </Description>
                <ItemRef ItemOID="IT.SUPPQSCS.STUDYID" Mandatory="Yes" OrderNumber="1" KeySequence="1"/>
                <ItemRef ItemOID="IT.SUPPQSCS.RDOMAIN" Mandatory="Yes" MethodOID="MT.RDOMAIN" OrderNumber="2"
                         KeySequence="2"/>
                <ItemRef ItemOID="IT.SUPPQSCS.USUBJID" Mandatory="Yes" MethodOID="MT.USUBJID" OrderNumber="3"
                         KeySequence="3"/>
                <ItemRef ItemOID="IT.SUPPQSCS.IDVAR" Mandatory="No" OrderNumber="4" KeySequence="4"/>
                <ItemRef ItemOID="IT.SUPPQSCS.IDVARVAL" Mandatory="No" OrderNumber="5" KeySequence="5"/>
                <ItemRef ItemOID="IT.SUPPQSCS.QNAM" Mandatory="Yes" OrderNumber="6" KeySequence="6"/>
                <ItemRef ItemOID="IT.SUPPQSCS.QLABEL" Mandatory="Yes" OrderNumber="7"/>
                <ItemRef ItemOID="IT.SUPPQSCS.QVAL" Mandatory="Yes" OrderNumber="8"/>
                <ItemRef ItemOID="IT.SUPPQSCS.QORIG" Mandatory="Yes" OrderNumber="9"/>
                <ItemRef ItemOID="IT.SUPPQSCS.QEVAL" Mandatory="No" OrderNumber="10"/>
                <def:Class Name="RELATIONSHIP"/>
                <def:leaf ID="LF.SUPPQSCS" xlink:href="suppqscs.xpt">
                    <def:title>suppqscs.xpt</def:title>
                </def:leaf>
            </ItemGroupDef>
            <ItemGroupDef OID="IG.SUPPQSMM" Name="SUPPQSMM" Repeating="Yes" Domain="SUPPQSMM" SASDatasetName="SUPPQSMM"
                          IsReferenceData="No" Purpose="Tabulation"
                          def:Structure="One record per IDVAR, IDVARVAL, and QNAM value per subject"
                          def:ArchiveLocationID="LF.SUPPQSMM" def:CommentOID="COM.STD1" def:StandardOID="STD.1">
                <Description>
                    <TranslatedText xml:lang="en">Supplemental Qualifiers for QSMM</TranslatedText>
                </Description>
                <ItemRef ItemOID="IT.SUPPQSMM.STUDYID" Mandatory="Yes" OrderNumber="1" KeySequence="1"/>
                <ItemRef ItemOID="IT.SUPPQSMM.RDOMAIN" Mandatory="Yes" MethodOID="MT.RDOMAIN" OrderNumber="2"
                         KeySequence="2"/>
                <ItemRef ItemOID="IT.SUPPQSMM.USUBJID" Mandatory="Yes" MethodOID="MT.USUBJID" OrderNumber="3"
                         KeySequence="3"/>
                <ItemRef ItemOID="IT.SUPPQSMM.IDVAR" Mandatory="No" OrderNumber="4" KeySequence="4"/>
                <ItemRef ItemOID="IT.SUPPQSMM.IDVARVAL" Mandatory="No" OrderNumber="5" KeySequence="5"/>
                <ItemRef ItemOID="IT.SUPPQSMM.QNAM" Mandatory="Yes" OrderNumber="6" KeySequence="6"/>
                <ItemRef ItemOID="IT.SUPPQSMM.QLABEL" Mandatory="Yes" OrderNumber="7"/>
                <ItemRef ItemOID="IT.SUPPQSMM.QVAL" Mandatory="Yes" OrderNumber="8"/>
                <ItemRef ItemOID="IT.SUPPQSMM.QORIG" Mandatory="Yes" OrderNumber="9"/>
                <ItemRef ItemOID="IT.SUPPQSMM.QEVAL" Mandatory="No" OrderNumber="10"/>
                <def:Class Name="RELATIONSHIP"/>
                <def:leaf ID="LF.SUPPQSMM" xlink:href="suppqsmm.xpt">
                    <def:title>suppqsmm.xpt</def:title>
                </def:leaf>
            </ItemGroupDef>
            <ItemGroupDef OID="IG.SUPPVS" Name="SUPPVS" Repeating="Yes" Domain="SUPPVS" SASDatasetName="SUPPVS"
                          IsReferenceData="No" Purpose="Tabulation"
                          def:Structure="One record per IDVAR, IDVARVAL, and QNAM value per subject"
                          def:ArchiveLocationID="LF.SUPPVS" def:CommentOID="COM.STD1" def:StandardOID="STD.1">
                <Description>
                    <TranslatedText xml:lang="en">Supplemental Qualifiers for VS</TranslatedText>
                </Description>
                <ItemRef ItemOID="IT.SUPPVS.STUDYID" Mandatory="Yes" OrderNumber="1" KeySequence="1"/>
                <ItemRef ItemOID="IT.SUPPVS.RDOMAIN" Mandatory="Yes" MethodOID="MT.RDOMAIN" OrderNumber="2"
                         KeySequence="2"/>
                <ItemRef ItemOID="IT.SUPPVS.USUBJID" Mandatory="Yes" MethodOID="MT.USUBJID" OrderNumber="3"
                         KeySequence="3"/>
                <ItemRef ItemOID="IT.SUPPVS.IDVAR" Mandatory="No" OrderNumber="4" KeySequence="4"/>
                <ItemRef ItemOID="IT.SUPPVS.IDVARVAL" Mandatory="No" OrderNumber="5" KeySequence="5"/>
                <ItemRef ItemOID="IT.SUPPVS.QNAM" Mandatory="Yes" OrderNumber="6" KeySequence="6"/>
                <ItemRef ItemOID="IT.SUPPVS.QLABEL" Mandatory="Yes" OrderNumber="7"/>
                <ItemRef ItemOID="IT.SUPPVS.QVAL" Mandatory="Yes" OrderNumber="8"/>
                <ItemRef ItemOID="IT.SUPPVS.QORIG" Mandatory="Yes" OrderNumber="9"/>
                <ItemRef ItemOID="IT.SUPPVS.QEVAL" Mandatory="No" OrderNumber="10"/>
                <def:Class Name="RELATIONSHIP"/>
                <def:leaf ID="LF.SUPPVS" xlink:href="suppvs.xpt">
                    <def:title>suppvs.xpt</def:title>
                </def:leaf>
            </ItemGroupDef>
            <ItemGroupDef OID="IG.SV" Name="SV" Repeating="Yes" Domain="SV" SASDatasetName="SV" IsReferenceData="No"
                          Purpose="Tabulation" def:Structure="One record per actual visit per subject"
                          def:ArchiveLocationID="LF.SV" def:CommentOID="COM.STD1" def:StandardOID="STD.1">
                <Description>
                    <TranslatedText xml:lang="en">Subject Visits</TranslatedText>
                </Description>
                <ItemRef ItemOID="IT.SV.STUDYID" Mandatory="Yes" OrderNumber="1" KeySequence="1"/>
                <ItemRef ItemOID="IT.SV.DOMAIN" Mandatory="Yes" OrderNumber="2"/>
                <ItemRef ItemOID="IT.SV.USUBJID" Mandatory="Yes" MethodOID="MT.USUBJID" OrderNumber="3"
                         KeySequence="2"/>
                <ItemRef ItemOID="IT.SV.VISITNUM" Mandatory="Yes" MethodOID="MT.SV.VISITNUM" OrderNumber="4"
                         KeySequence="4"/>
                <ItemRef ItemOID="IT.SV.VISIT" Mandatory="No" MethodOID="MT.SV.VISIT" OrderNumber="5"/>
                <ItemRef ItemOID="IT.SV.VISITDY" Mandatory="No" OrderNumber="6"/>
                <ItemRef ItemOID="IT.SV.SVSTDTC" Mandatory="No" MethodOID="MT.SVSTDTC" OrderNumber="7" KeySequence="3"/>
                <ItemRef ItemOID="IT.SV.SVENDTC" Mandatory="No" MethodOID="MT.SVENDTC" OrderNumber="8"/>
                <ItemRef ItemOID="IT.SV.SVSTDY" Mandatory="No" MethodOID="MT.SVSTDY" OrderNumber="9"/>
                <def:Class Name="SPECIAL PURPOSE"/>
                <def:leaf ID="LF.SV" xlink:href="sv.xpt">
                    <def:title>sv.xpt</def:title>
                </def:leaf>
            </ItemGroupDef>
            <ItemGroupDef OID="IG.TA" Name="TA" Repeating="No" Domain="TA" SASDatasetName="TA" IsReferenceData="Yes"
                          Purpose="Tabulation" def:Structure="One record per planned Element per Arm"
                          def:ArchiveLocationID="LF.TA" def:CommentOID="COM.STD1" def:StandardOID="STD.1">
                <Description>
                    <TranslatedText xml:lang="en">Trial Arms</TranslatedText>
                </Description>
                <ItemRef ItemOID="IT.TA.STUDYID" Mandatory="Yes" OrderNumber="1" KeySequence="1"/>
                <ItemRef ItemOID="IT.TA.DOMAIN" Mandatory="Yes" OrderNumber="2"/>
                <ItemRef ItemOID="IT.TA.ARMCD" Mandatory="Yes" OrderNumber="3" KeySequence="2"/>
                <ItemRef ItemOID="IT.TA.ARM" Mandatory="Yes" OrderNumber="4"/>
                <ItemRef ItemOID="IT.TA.TAETORD" Mandatory="Yes" OrderNumber="5" KeySequence="3"/>
                <ItemRef ItemOID="IT.TA.ETCD" Mandatory="Yes" OrderNumber="6"/>
                <ItemRef ItemOID="IT.TA.ELEMENT" Mandatory="No" OrderNumber="7"/>
                <ItemRef ItemOID="IT.TA.TABRANCH" Mandatory="No" OrderNumber="8"/>
                <ItemRef ItemOID="IT.TA.TATRANS" Mandatory="No" OrderNumber="9"/>
                <ItemRef ItemOID="IT.TA.EPOCH" Mandatory="Yes" OrderNumber="10"/>
                <def:Class Name="TRIAL DESIGN"/>
                <def:leaf ID="LF.TA" xlink:href="ta.xpt">
                    <def:title>ta.xpt</def:title>
                </def:leaf>
            </ItemGroupDef>
            <ItemGroupDef OID="IG.TE" Name="TE" Repeating="No" Domain="TE" SASDatasetName="TE" IsReferenceData="Yes"
                          Purpose="Tabulation" def:Structure="One record per planned Element"
                          def:ArchiveLocationID="LF.TE" def:CommentOID="COM.STD1" def:StandardOID="STD.1">
                <Description>
                    <TranslatedText xml:lang="en">Trial Elements</TranslatedText>
                </Description>
                <ItemRef ItemOID="IT.TE.STUDYID" Mandatory="Yes" OrderNumber="1" KeySequence="1"/>
                <ItemRef ItemOID="IT.TE.DOMAIN" Mandatory="Yes" OrderNumber="2"/>
                <ItemRef ItemOID="IT.TE.ETCD" Mandatory="Yes" OrderNumber="3" KeySequence="2"/>
                <ItemRef ItemOID="IT.TE.ELEMENT" Mandatory="Yes" OrderNumber="4"/>
                <ItemRef ItemOID="IT.TE.TESTRL" Mandatory="Yes" OrderNumber="5"/>
                <ItemRef ItemOID="IT.TE.TEDUR" Mandatory="No" OrderNumber="6"/>
                <def:Class Name="TRIAL DESIGN"/>
                <def:leaf ID="LF.TE" xlink:href="te.xpt">
                    <def:title>te.xpt</def:title>
                </def:leaf>
            </ItemGroupDef>
            <ItemGroupDef OID="IG.TI" Name="TI" Repeating="No" Domain="TI" SASDatasetName="TI" IsReferenceData="Yes"
                          Purpose="Tabulation" def:Structure="One record per I/E criterion"
                          def:ArchiveLocationID="LF.TI" def:CommentOID="COM.STD1" def:StandardOID="STD.1">
                <Description>
                    <TranslatedText xml:lang="en">Trial Inclusion/Exclusion Criteria</TranslatedText>
                </Description>
                <ItemRef ItemOID="IT.TI.STUDYID" Mandatory="Yes" OrderNumber="1" KeySequence="1"/>
                <ItemRef ItemOID="IT.TI.DOMAIN" Mandatory="Yes" OrderNumber="2"/>
                <ItemRef ItemOID="IT.TI.IETESTCD" Mandatory="Yes" OrderNumber="3" KeySequence="2"/>
                <ItemRef ItemOID="IT.TI.IETEST" Mandatory="Yes" OrderNumber="4"/>
                <ItemRef ItemOID="IT.TI.IECAT" Mandatory="Yes" OrderNumber="5"/>
                <def:Class Name="TRIAL DESIGN"/>
                <def:leaf ID="LF.TI" xlink:href="ti.xpt">
                    <def:title>ti.xpt</def:title>
                </def:leaf>
            </ItemGroupDef>
            <ItemGroupDef OID="IG.TS" Name="TS" Repeating="No" Domain="TS" SASDatasetName="TS" IsReferenceData="Yes"
                          Purpose="Tabulation" def:Structure="One record per trial summary parameter value"
                          def:ArchiveLocationID="LF.TS" def:CommentOID="COM.STD1" def:StandardOID="STD.1">
                <Description>
                    <TranslatedText xml:lang="en">Trial Summary</TranslatedText>
                </Description>
                <ItemRef ItemOID="IT.TS.STUDYID" Mandatory="Yes" OrderNumber="1" KeySequence="1"/>
                <ItemRef ItemOID="IT.TS.DOMAIN" Mandatory="Yes" OrderNumber="2"/>
                <ItemRef ItemOID="IT.TS.TSSEQ" Mandatory="Yes" MethodOID="MT.TSSEQ" OrderNumber="3" KeySequence="3"/>
                <ItemRef ItemOID="IT.TS.TSPARMCD" Mandatory="Yes" OrderNumber="4" KeySequence="2"/>
                <ItemRef ItemOID="IT.TS.TSPARM" Mandatory="Yes" OrderNumber="5"/>
                <ItemRef ItemOID="IT.TS.TSVAL" Mandatory="Yes" OrderNumber="6"/>
                <def:Class Name="TRIAL DESIGN"/>
                <def:leaf ID="LF.TS" xlink:href="ts.xpt">
                    <def:title>ts.xpt</def:title>
                </def:leaf>
            </ItemGroupDef>
            <ItemGroupDef OID="IG.TV" Name="TV" Repeating="No" Domain="TV" SASDatasetName="TV" IsReferenceData="Yes"
                          Purpose="Tabulation" def:Structure="One record per planned Visit per Arm"
                          def:ArchiveLocationID="LF.TV" def:CommentOID="COM.STD1" def:StandardOID="STD.1">
                <Description>
                    <TranslatedText xml:lang="en">Trial Visits</TranslatedText>
                </Description>
                <ItemRef ItemOID="IT.TV.STUDYID" Mandatory="Yes" OrderNumber="1" KeySequence="1"/>
                <ItemRef ItemOID="IT.TV.DOMAIN" Mandatory="Yes" OrderNumber="2"/>
                <ItemRef ItemOID="IT.TV.VISITNUM" Mandatory="Yes" OrderNumber="3" KeySequence="2"/>
                <ItemRef ItemOID="IT.TV.VISIT" Mandatory="No" OrderNumber="4"/>
                <ItemRef ItemOID="IT.TV.VISITDY" Mandatory="No" OrderNumber="5"/>
                <ItemRef ItemOID="IT.TV.ARMCD" Mandatory="No" OrderNumber="6" KeySequence="3"/>
                <ItemRef ItemOID="IT.TV.TVSTRL" Mandatory="Yes" OrderNumber="7"/>
                <def:Class Name="TRIAL DESIGN"/>
                <def:leaf ID="LF.TV" xlink:href="tv.xpt">
                    <def:title>tv.xpt</def:title>
                </def:leaf>
            </ItemGroupDef>
            <ItemGroupDef OID="IG.VS" Name="VS" Repeating="Yes" Domain="VS" SASDatasetName="VS" IsReferenceData="No"
                          Purpose="Tabulation"
                          def:Structure="One record per vital sign measurement per visit per subject"
                          def:ArchiveLocationID="LF.VS" def:CommentOID="COM.STD1" def:StandardOID="STD.1">
                <Description>
                    <TranslatedText xml:lang="en">Vital Signs</TranslatedText>
                </Description>
                <ItemRef ItemOID="IT.VS.STUDYID" Mandatory="Yes" OrderNumber="1" KeySequence="1"/>
                <ItemRef ItemOID="IT.VS.DOMAIN" Mandatory="Yes" OrderNumber="2"/>
                <ItemRef ItemOID="IT.VS.USUBJID" Mandatory="Yes" MethodOID="MT.USUBJID" OrderNumber="3"
                         KeySequence="2"/>
                <ItemRef ItemOID="IT.VS.VSSEQ" Mandatory="Yes" MethodOID="MT.SEQ" OrderNumber="4"/>
                <ItemRef ItemOID="IT.VS.VSTESTCD" Mandatory="Yes" OrderNumber="5" KeySequence="3"/>
                <ItemRef ItemOID="IT.VS.VSTEST" Mandatory="Yes" OrderNumber="6"/>
                <ItemRef ItemOID="IT.VS.VSPOS" Mandatory="No" OrderNumber="7" KeySequence="6"/>
                <ItemRef ItemOID="IT.VS.VSORRES" Mandatory="No" OrderNumber="8"/>
                <ItemRef ItemOID="IT.VS.VSORRESU" Mandatory="No" OrderNumber="9"/>
                <ItemRef ItemOID="IT.VS.VSSTRESC" Mandatory="No" MethodOID="MT.VSSTRESC" OrderNumber="10"/>
                <ItemRef ItemOID="IT.VS.VSSTRESN" Mandatory="No" MethodOID="MT.VSSTRESN" OrderNumber="11"/>
                <ItemRef ItemOID="IT.VS.VSSTRESU" Mandatory="No" OrderNumber="12"/>
                <ItemRef ItemOID="IT.VS.VSBLFL" Mandatory="No" MethodOID="MT.VSBLFL" OrderNumber="13"/>
                <ItemRef ItemOID="IT.VS.VISITNUM" Mandatory="No" OrderNumber="14" KeySequence="5"/>
                <ItemRef ItemOID="IT.VS.VISIT" Mandatory="No" OrderNumber="15"/>
                <ItemRef ItemOID="IT.VS.VISITDY" Mandatory="No" OrderNumber="16"/>
                <ItemRef ItemOID="IT.VS.VSDTC" Mandatory="No" OrderNumber="17" KeySequence="4"/>
                <ItemRef ItemOID="IT.VS.VSDY" Mandatory="No" MethodOID="MT.VSDY" OrderNumber="18"/>
                <def:Class Name="FINDINGS"/>
                <def:leaf ID="LF.VS" xlink:href="vs.xpt">
                    <def:title>vs.xpt</def:title>
                </def:leaf>
            </ItemGroupDef>
            <ItemDef OID="IT.AE.STUDYID" Name="STUDYID" DataType="text" SASFieldName="STUDYID" Length="7">
                <Description>
                    <TranslatedText xml:lang="en">Study Identifier</TranslatedText>
                </Description>
                <def:Origin Type="Protocol" Source="Sponsor"/>
            </ItemDef>
            <ItemDef OID="IT.AE.DOMAIN" Name="DOMAIN" DataType="text" SASFieldName="DOMAIN" Length="2">
                <Description>
                    <TranslatedText xml:lang="en">Domain Abbreviation</TranslatedText>
                </Description>
                <CodeListRef CodeListOID="CL.AE.DOMAIN"/>
                <def:Origin Type="Assigned" Source="Sponsor"/>
            </ItemDef>
            <ItemDef OID="IT.AE.USUBJID" Name="USUBJID" DataType="text" SASFieldName="USUBJID" Length="14">
                <Description>
                    <TranslatedText xml:lang="en">Unique Subject Identifier</TranslatedText>
                </Description>
                <def:Origin Type="Derived" Source="Sponsor"/>
            </ItemDef>
            <ItemDef OID="IT.AE.AESEQ" Name="AESEQ" DataType="integer" SASFieldName="AESEQ" Length="1">
                <Description>
                    <TranslatedText xml:lang="en">Sequence Number</TranslatedText>
                </Description>
                <def:Origin Type="Derived" Source="Sponsor"/>
            </ItemDef>
            <ItemDef OID="IT.AE.AESPID" Name="AESPID" DataType="text" SASFieldName="AESPID" Length="4">
                <Description>
                    <TranslatedText xml:lang="en">Sponsor-Defined Identifier</TranslatedText>
                </Description>
                <def:Origin Type="Collected" Source="Investigator">
                    <def:DocumentRef leafID="LF.blankcrf">
                        <def:PDFPageRef PageRefs="21" Type="PhysicalRef"/>
                    </def:DocumentRef>
                </def:Origin>
            </ItemDef>
            <ItemDef OID="IT.AE.AETERM" Name="AETERM" DataType="text" SASFieldName="AETERM" Length="25">
                <Description>
                    <TranslatedText xml:lang="en">Reported Term for the Adverse Event</TranslatedText>
                </Description>
                <def:Origin Type="Collected" Source="Investigator">
                    <def:DocumentRef leafID="LF.blankcrf">
                        <def:PDFPageRef PageRefs="21" Type="PhysicalRef"/>
                    </def:DocumentRef>
                </def:Origin>
            </ItemDef>
            <ItemDef OID="IT.AE.AEMODIFY" Name="AEMODIFY" DataType="text" SASFieldName="AEMODIFY" Length="9">
                <Description>
                    <TranslatedText xml:lang="en">Modified Reported Term</TranslatedText>
                </Description>
                <def:Origin Type="Assigned" Source="Sponsor"/>
            </ItemDef>
            <ItemDef OID="IT.AE.AEDECOD" Name="AEDECOD" DataType="text" SASFieldName="AEDECOD" Length="18">
                <Description>
                    <TranslatedText xml:lang="en">Dictionary-Derived Term</TranslatedText>
                </Description>
                <CodeListRef CodeListOID="CL.AEDICT_F"/>
                <def:Origin Type="Assigned" Source="Sponsor"/>
            </ItemDef>
            <ItemDef OID="IT.AE.AEBODSYS" Name="AEBODSYS" DataType="text" SASFieldName="AEBODSYS" Length="52">
                <Description>
                    <TranslatedText xml:lang="en">Body System or Organ Class</TranslatedText>
                </Description>
                <CodeListRef CodeListOID="CL.AEDICT_F"/>
                <def:Origin Type="Assigned" Source="Sponsor"/>
            </ItemDef>
            <ItemDef OID="IT.AE.AESEV" Name="AESEV" DataType="text" SASFieldName="AESEV" Length="8">
                <Description>
                    <TranslatedText xml:lang="en">Severity/Intensity</TranslatedText>
                </Description>
                <CodeListRef CodeListOID="CL.AESEV"/>
                <def:Origin Type="Collected" Source="Investigator">
                    <def:DocumentRef leafID="LF.blankcrf">
                        <def:PDFPageRef PageRefs="21" Type="PhysicalRef"/>
                    </def:DocumentRef>
                </def:Origin>
            </ItemDef>
            <ItemDef OID="IT.AE.AESER" Name="AESER" DataType="text" SASFieldName="AESER" Length="1">
                <Description>
                    <TranslatedText xml:lang="en">Serious Event</TranslatedText>
                </Description>
                <CodeListRef CodeListOID="CL.NY"/>
                <def:Origin Type="Collected" Source="Investigator">
                    <def:DocumentRef leafID="LF.blankcrf">
                        <def:PDFPageRef PageRefs="21" Type="PhysicalRef"/>
                    </def:DocumentRef>
                </def:Origin>
            </ItemDef>
            <ItemDef OID="IT.AE.AEACN" Name="AEACN" DataType="text" SASFieldName="AEACN" Length="30">
                <Description>
                    <TranslatedText xml:lang="en">Action Taken with Study Treatment</TranslatedText>
                </Description>
                <CodeListRef CodeListOID="CL.ACN"/>
                <def:Origin Type="Collected" Source="Investigator">
                    <def:DocumentRef leafID="LF.blankcrf">
                        <def:PDFPageRef PageRefs="21" Type="PhysicalRef"/>
                    </def:DocumentRef>
                </def:Origin>
            </ItemDef>
            <ItemDef OID="IT.AE.AEREL" Name="AEREL" DataType="text" SASFieldName="AEREL" Length="16">
                <Description>
                    <TranslatedText xml:lang="en">Causality</TranslatedText>
                </Description>
                <CodeListRef CodeListOID="CL.AEREL"/>
                <def:Origin Type="Collected" Source="Investigator">
                    <def:DocumentRef leafID="LF.blankcrf">
                        <def:PDFPageRef PageRefs="21" Type="PhysicalRef"/>
                    </def:DocumentRef>
                </def:Origin>
            </ItemDef>
            <ItemDef OID="IT.AE.AESTDTC" Name="AESTDTC" DataType="date" SASFieldName="AESTDTC">
                <Description>
                    <TranslatedText xml:lang="en">Start Date/Time of Adverse Event</TranslatedText>
                </Description>
                <def:Origin Type="Collected" Source="Investigator">
                    <def:DocumentRef leafID="LF.blankcrf">
                        <def:PDFPageRef PageRefs="21" Type="PhysicalRef"/>
                    </def:DocumentRef>
                </def:Origin>
            </ItemDef>
            <ItemDef OID="IT.AE.AEENDTC" Name="AEENDTC" DataType="date" SASFieldName="AEENDTC">
                <Description>
                    <TranslatedText xml:lang="en">End Date/Time of Adverse Event</TranslatedText>
                </Description>
                <def:Origin Type="Collected" Source="Investigator">
                    <def:DocumentRef leafID="LF.blankcrf">
                        <def:PDFPageRef PageRefs="21" Type="PhysicalRef"/>
                    </def:DocumentRef>
                </def:Origin>
            </ItemDef>
            <ItemDef OID="IT.AE.AESTDY" Name="AESTDY" DataType="integer" SASFieldName="AESTDY" Length="3">
                <Description>
                    <TranslatedText xml:lang="en">Study Day of Start of Adverse Event</TranslatedText>
                </Description>
                <def:Origin Type="Derived" Source="Sponsor"/>
            </ItemDef>
            <ItemDef OID="IT.AE.AEENDY" Name="AEENDY" DataType="integer" SASFieldName="AEENDY" Length="3">
                <Description>
                    <TranslatedText xml:lang="en">Study Day of End of Adverse Event</TranslatedText>
                </Description>
                <def:Origin Type="Derived" Source="Sponsor"/>
            </ItemDef>
            <ItemDef OID="IT.AE.AEENRF" Name="AEENRF" DataType="text" SASFieldName="AEENRF" Length="5">
                <Description>
                    <TranslatedText xml:lang="en">End Relative to Reference Period</TranslatedText>
                </Description>
                <CodeListRef CodeListOID="CL.AEENRF"/>
                <def:Origin Type="Collected" Source="Investigator">
                    <def:DocumentRef leafID="LF.blankcrf">
                        <def:PDFPageRef PageRefs="21" Type="PhysicalRef"/>
                    </def:DocumentRef>
                </def:Origin>
            </ItemDef>
            <ItemDef OID="IT.CM.STUDYID" Name="STUDYID" DataType="text" SASFieldName="STUDYID" Length="7">
                <Description>
                    <TranslatedText xml:lang="en">Study Identifier</TranslatedText>
                </Description>
                <def:Origin Type="Protocol" Source="Sponsor"/>
            </ItemDef>
            <ItemDef OID="IT.CM.DOMAIN" Name="DOMAIN" DataType="text" SASFieldName="DOMAIN" Length="2">
                <Description>
                    <TranslatedText xml:lang="en">Domain Abbreviation</TranslatedText>
                </Description>
                <CodeListRef CodeListOID="CL.CM.DOMAIN"/>
                <def:Origin Type="Assigned" Source="Sponsor"/>
            </ItemDef>
            <ItemDef OID="IT.CM.USUBJID" Name="USUBJID" DataType="text" SASFieldName="USUBJID" Length="14">
                <Description>
                    <TranslatedText xml:lang="en">Unique Subject Identifier</TranslatedText>
                </Description>
                <def:Origin Type="Derived" Source="Sponsor"/>
            </ItemDef>
            <ItemDef OID="IT.CM.CMSEQ" Name="CMSEQ" DataType="integer" SASFieldName="CMSEQ" Length="2">
                <Description>
                    <TranslatedText xml:lang="en">Sequence Number</TranslatedText>
                </Description>
                <def:Origin Type="Derived" Source="Sponsor"/>
            </ItemDef>
            <ItemDef OID="IT.CM.CMTRT" Name="CMTRT" DataType="text" SASFieldName="CMTRT" Length="23">
                <Description>
                    <TranslatedText xml:lang="en">Reported Name of Drug, Med, or Therapy</TranslatedText>
                </Description>
                <def:Origin Type="Collected" Source="Investigator">
                    <def:DocumentRef leafID="LF.blankcrf">
                        <def:PDFPageRef PageRefs="9 22" Type="PhysicalRef"/>
                    </def:DocumentRef>
                </def:Origin>
            </ItemDef>
            <ItemDef OID="IT.CM.CMMODIFY" Name="CMMODIFY" DataType="text" SASFieldName="CMMODIFY" Length="23">
                <Description>
                    <TranslatedText xml:lang="en">Modified Reported Name</TranslatedText>
                </Description>
                <def:Origin Type="Assigned" Source="Sponsor"/>
            </ItemDef>
            <ItemDef OID="IT.CM.CMDECOD" Name="CMDECOD" DataType="text" SASFieldName="CMDECOD" Length="30">
                <Description>
                    <TranslatedText xml:lang="en">Standardized Medication Name</TranslatedText>
                </Description>
                <CodeListRef CodeListOID="CL.DRUGDICT_F"/>
                <def:Origin Type="Assigned" Source="Sponsor"/>
            </ItemDef>
            <ItemDef OID="IT.CM.CMCAT" Name="CMCAT" DataType="text" SASFieldName="CMCAT" Length="36">
                <Description>
                    <TranslatedText xml:lang="en">Category for Medication</TranslatedText>
                </Description>
                <CodeListRef CodeListOID="CL.CMCAT"/>
                <def:Origin Type="Collected" Source="Investigator">
                    <def:DocumentRef leafID="LF.blankcrf">
                        <def:PDFPageRef PageRefs="9 22" Type="PhysicalRef"/>
                    </def:DocumentRef>
                </def:Origin>
            </ItemDef>
            <ItemDef OID="IT.CM.CMINDC" Name="CMINDC" DataType="text" SASFieldName="CMINDC" Length="27">
                <Description>
                    <TranslatedText xml:lang="en">Indication</TranslatedText>
                </Description>
                <def:Origin Type="Collected" Source="Investigator">
                    <def:DocumentRef leafID="LF.blankcrf">
                        <def:PDFPageRef PageRefs="9 22" Type="PhysicalRef"/>
                    </def:DocumentRef>
                </def:Origin>
            </ItemDef>
            <ItemDef OID="IT.CM.CMCLAS" Name="CMCLAS" DataType="text" SASFieldName="CMCLAS" Length="45"
                     def:CommentOID="COM.CMCLAS">
                <Description>
                    <TranslatedText xml:lang="en">Medication Class</TranslatedText>
                </Description>
                <CodeListRef CodeListOID="CL.DRUGDICT_F"/>
                <def:Origin Type="Assigned" Source="Sponsor"/>
            </ItemDef>
            <ItemDef OID="IT.CM.CMCLASCD" Name="CMCLASCD" DataType="text" SASFieldName="CMCLASCD" Length="3"
                     def:CommentOID="COM.CMCLASCD">
                <Description>
                    <TranslatedText xml:lang="en">Medication Class Code</TranslatedText>
                </Description>
                <CodeListRef CodeListOID="CL.DRUGDICT_F"/>
                <def:Origin Type="Assigned" Source="Sponsor"/>
            </ItemDef>
            <ItemDef OID="IT.CM.CMDOSTXT" Name="CMDOSTXT" DataType="text" SASFieldName="CMDOSTXT" Length="4">
                <Description>
                    <TranslatedText xml:lang="en">Dose Description</TranslatedText>
                </Description>
                <def:Origin Type="Collected" Source="Investigator">
                    <def:DocumentRef leafID="LF.blankcrf">
                        <def:PDFPageRef PageRefs="9 22" Type="PhysicalRef"/>
                    </def:DocumentRef>
                </def:Origin>
            </ItemDef>
            <ItemDef OID="IT.CM.CMDOSU" Name="CMDOSU" DataType="text" SASFieldName="CMDOSU" Length="6">
                <Description>
                    <TranslatedText xml:lang="en">Dose Units</TranslatedText>
                </Description>
                <CodeListRef CodeListOID="CL.CMUNIT"/>
                <def:Origin Type="Collected" Source="Investigator">
                    <def:DocumentRef leafID="LF.blankcrf">
                        <def:PDFPageRef PageRefs="9 22" Type="PhysicalRef"/>
                    </def:DocumentRef>
                </def:Origin>
            </ItemDef>
            <ItemDef OID="IT.CM.CMDOSFRQ" Name="CMDOSFRQ" DataType="text" SASFieldName="CMDOSFRQ" Length="5">
                <Description>
                    <TranslatedText xml:lang="en">Dosing Frequency per Interval</TranslatedText>
                </Description>
                <CodeListRef CodeListOID="CL.FREQ"/>
                <def:Origin Type="Collected" Source="Investigator">
                    <def:DocumentRef leafID="LF.blankcrf">
                        <def:PDFPageRef PageRefs="22" Type="PhysicalRef"/>
                    </def:DocumentRef>
                </def:Origin>
            </ItemDef>
            <ItemDef OID="IT.CM.CMROUTE" Name="CMROUTE" DataType="text" SASFieldName="CMROUTE" Length="12"
                     def:CommentOID="COM.CMROUTE">
                <Description>
                    <TranslatedText xml:lang="en">Route of Administration</TranslatedText>
                </Description>
                <CodeListRef CodeListOID="CL.ROUTE"/>
                <def:Origin Type="Collected" Source="Investigator">
                    <def:DocumentRef leafID="LF.blankcrf">
                        <def:PDFPageRef PageRefs="22" Type="PhysicalRef"/>
                    </def:DocumentRef>
                </def:Origin>
            </ItemDef>
            <ItemDef OID="IT.CM.CMSTDTC" Name="CMSTDTC" DataType="date" SASFieldName="CMSTDTC">
                <Description>
                    <TranslatedText xml:lang="en">Start Date/Time of Medication</TranslatedText>
                </Description>
                <def:Origin Type="Collected" Source="Investigator">
                    <def:DocumentRef leafID="LF.blankcrf">
                        <def:PDFPageRef PageRefs="9 22" Type="PhysicalRef"/>
                    </def:DocumentRef>
                </def:Origin>
            </ItemDef>
            <ItemDef OID="IT.CM.CMENDTC" Name="CMENDTC" DataType="date" SASFieldName="CMENDTC">
                <Description>
                    <TranslatedText xml:lang="en">End Date/Time of Medication</TranslatedText>
                </Description>
                <def:Origin Type="Collected" Source="Investigator">
                    <def:DocumentRef leafID="LF.blankcrf">
                        <def:PDFPageRef PageRefs="9 22" Type="PhysicalRef"/>
                    </def:DocumentRef>
                </def:Origin>
            </ItemDef>
            <ItemDef OID="IT.CM.CMSTDY" Name="CMSTDY" DataType="integer" SASFieldName="CMSTDY" Length="6">
                <Description>
                    <TranslatedText xml:lang="en">Study Day of Start of Medication</TranslatedText>
                </Description>
                <def:Origin Type="Derived" Source="Sponsor"/>
            </ItemDef>
            <ItemDef OID="IT.CM.CMENDY" Name="CMENDY" DataType="integer" SASFieldName="CMENDY" Length="4">
                <Description>
                    <TranslatedText xml:lang="en">Study Day of End of Medication</TranslatedText>
                </Description>
                <def:Origin Type="Derived" Source="Sponsor"/>
            </ItemDef>
            <ItemDef OID="IT.CM.CMENRF" Name="CMENRF" DataType="text" SASFieldName="CMENRF" Length="6">
                <Description>
                    <TranslatedText xml:lang="en">End Relative to Reference Period</TranslatedText>
                </Description>
                <CodeListRef CodeListOID="CL.CMENRF"/>
                <def:Origin Type="Collected" Source="Investigator">
                    <def:DocumentRef leafID="LF.blankcrf">
                        <def:PDFPageRef PageRefs="22" Type="PhysicalRef"/>
                    </def:DocumentRef>
                </def:Origin>
            </ItemDef>
            <ItemDef OID="IT.DA.STUDYID" Name="STUDYID" DataType="text" SASFieldName="STUDYID" Length="7">
                <Description>
                    <TranslatedText xml:lang="en">Study Identifier</TranslatedText>
                </Description>
                <def:Origin Type="Protocol" Source="Sponsor"/>
            </ItemDef>
            <ItemDef OID="IT.DA.DOMAIN" Name="DOMAIN" DataType="text" SASFieldName="DOMAIN" Length="2">
                <Description>
                    <TranslatedText xml:lang="en">Domain Abbreviation</TranslatedText>
                </Description>
                <CodeListRef CodeListOID="CL.DA.DOMAIN"/>
                <def:Origin Type="Assigned" Source="Sponsor"/>
            </ItemDef>
            <ItemDef OID="IT.DA.USUBJID" Name="USUBJID" DataType="text" SASFieldName="USUBJID" Length="14">
                <Description>
                    <TranslatedText xml:lang="en">Unique Subject Identifier</TranslatedText>
                </Description>
                <def:Origin Type="Derived" Source="Sponsor"/>
            </ItemDef>
            <ItemDef OID="IT.DA.DASEQ" Name="DASEQ" DataType="integer" SASFieldName="DASEQ" Length="1">
                <Description>
                    <TranslatedText xml:lang="en">Sequence Number</TranslatedText>
                </Description>
                <def:Origin Type="Derived" Source="Sponsor"/>
            </ItemDef>
            <ItemDef OID="IT.DA.DATESTCD" Name="DATESTCD" DataType="text" SASFieldName="DATESTCD" Length="7">
                <Description>
                    <TranslatedText xml:lang="en">Short Name of Accountability Assessment</TranslatedText>
                </Description>
                <CodeListRef CodeListOID="CL.DATESTCD"/>
                <def:Origin Type="Assigned" Source="Sponsor"/>
            </ItemDef>
            <ItemDef OID="IT.DA.DATEST" Name="DATEST" DataType="text" SASFieldName="DATEST" Length="25">
                <Description>
                    <TranslatedText xml:lang="en">Name of Accountability Assessment</TranslatedText>
                </Description>
                <CodeListRef CodeListOID="CL.DATEST"/>
                <def:Origin Type="Collected" Source="Investigator">
                    <def:DocumentRef leafID="LF.blankcrf">
                        <def:PDFPageRef PageRefs="19" Type="PhysicalRef"/>
                    </def:DocumentRef>
                </def:Origin>
            </ItemDef>
            <ItemDef OID="IT.DA.DAORRES" Name="DAORRES" DataType="text" SASFieldName="DAORRES" Length="2">
                <Description>
                    <TranslatedText xml:lang="en">Assessment Result in Original Units</TranslatedText>
                </Description>
                <def:Origin Type="Collected" Source="Investigator">
                    <def:DocumentRef leafID="LF.blankcrf">
                        <def:PDFPageRef PageRefs="19" Type="PhysicalRef"/>
                    </def:DocumentRef>
                </def:Origin>
                <def:ValueListRef ValueListOID="VL.DA.DAORRES"/>
            </ItemDef>
            <ItemDef OID="IT.DA.DAORRESU" Name="DAORRESU" DataType="text" SASFieldName="DAORRESU" Length="7">
                <Description>
                    <TranslatedText xml:lang="en">Original Units</TranslatedText>
                </Description>
                <def:Origin Type="Collected" Source="Investigator">
                    <def:DocumentRef leafID="LF.blankcrf">
                        <def:PDFPageRef PageRefs="19" Type="PhysicalRef"/>
                    </def:DocumentRef>
                </def:Origin>
            </ItemDef>
            <ItemDef OID="IT.DA.DASTRESC" Name="DASTRESC" DataType="text" SASFieldName="DASTRESC" Length="2">
                <Description>
                    <TranslatedText xml:lang="en">Assessment Result in Std Format</TranslatedText>
                </Description>
                <def:Origin Type="Derived" Source="Sponsor"/>
            </ItemDef>
            <ItemDef OID="IT.DA.DASTRESN" Name="DASTRESN" DataType="integer" SASFieldName="DASTRESN" Length="2">
                <Description>
                    <TranslatedText xml:lang="en">Numeric Result/Finding in Standard Units</TranslatedText>
                </Description>
                <def:Origin Type="Derived" Source="Sponsor"/>
            </ItemDef>
            <ItemDef OID="IT.DA.DASTRESU" Name="DASTRESU" DataType="text" SASFieldName="DASTRESU" Length="7">
                <Description>
                    <TranslatedText xml:lang="en">Assessment Standard Units</TranslatedText>
                </Description>
                <def:Origin Type="Derived" Source="Sponsor"/>
            </ItemDef>
            <ItemDef OID="IT.DA.VISITNUM" Name="VISITNUM" DataType="integer" SASFieldName="VISITNUM" Length="2">
                <Description>
                    <TranslatedText xml:lang="en">Visit Number</TranslatedText>
                </Description>
                <def:Origin Type="Derived" Source="Sponsor"/>
            </ItemDef>
            <ItemDef OID="IT.DA.VISIT" Name="VISIT" DataType="text" SASFieldName="VISIT" Length="8">
                <Description>
                    <TranslatedText xml:lang="en">Visit Name</TranslatedText>
                </Description>
                <def:Origin Type="Assigned" Source="Sponsor"/>
            </ItemDef>
            <ItemDef OID="IT.DA.VISITDY" Name="VISITDY" DataType="integer" SASFieldName="VISITDY" Length="3">
                <Description>
                    <TranslatedText xml:lang="en">Planned Study Day of Visit</TranslatedText>
                </Description>
                <def:Origin Type="Protocol" Source="Sponsor"/>
            </ItemDef>
            <ItemDef OID="IT.DA.DADTC" Name="DADTC" DataType="date" SASFieldName="DADTC">
                <Description>
                    <TranslatedText xml:lang="en">Date/Time of Accountability Assessment</TranslatedText>
                </Description>
                <def:Origin Type="Collected" Source="Investigator">
                    <def:DocumentRef leafID="LF.blankcrf">
                        <def:PDFPageRef PageRefs="19" Type="PhysicalRef"/>
                    </def:DocumentRef>
                </def:Origin>
            </ItemDef>
            <ItemDef OID="IT.DA.DADY" Name="DADY" DataType="integer" SASFieldName="DADY" Length="3">
                <Description>
                    <TranslatedText xml:lang="en">Study Day of Accountability Assessment</TranslatedText>
                </Description>
                <def:Origin Type="Derived" Source="Sponsor"/>
            </ItemDef>
            <ItemDef OID="IT.DM.STUDYID" Name="STUDYID" DataType="text" SASFieldName="STUDYID" Length="7">
                <Description>
                    <TranslatedText xml:lang="en">Study Identifier</TranslatedText>
                </Description>
                <def:Origin Type="Protocol" Source="Sponsor"/>
            </ItemDef>
            <ItemDef OID="IT.DM.DOMAIN" Name="DOMAIN" DataType="text" SASFieldName="DOMAIN" Length="2">
                <Description>
                    <TranslatedText xml:lang="en">Domain Abbreviation</TranslatedText>
                </Description>
                <CodeListRef CodeListOID="CL.DM.DOMAIN"/>
                <def:Origin Type="Assigned" Source="Sponsor"/>
            </ItemDef>
            <ItemDef OID="IT.DM.USUBJID" Name="USUBJID" DataType="text" SASFieldName="USUBJID" Length="14">
                <Description>
                    <TranslatedText xml:lang="en">Unique Subject Identifier</TranslatedText>
                </Description>
                <def:Origin Type="Derived" Source="Sponsor"/>
            </ItemDef>
            <ItemDef OID="IT.DM.SUBJID" Name="SUBJID" DataType="text" SASFieldName="SUBJID" Length="6">
                <Description>
                    <TranslatedText xml:lang="en">Subject Identifier for the Study</TranslatedText>
                </Description>
                <def:Origin Type="Collected" Source="Investigator">
                    <def:DocumentRef leafID="LF.blankcrf">
                        <def:PDFPageRef PageRefs="3" Type="PhysicalRef"/>
                    </def:DocumentRef>
                </def:Origin>
            </ItemDef>
            <ItemDef OID="IT.DM.RFSTDTC" Name="RFSTDTC" DataType="date" SASFieldName="RFSTDTC">
                <Description>
                    <TranslatedText xml:lang="en">Subject Reference Start Date/Time</TranslatedText>
                </Description>
                <def:Origin Type="Derived" Source="Investigator"/>
            </ItemDef>
            <ItemDef OID="IT.DM.RFENDTC" Name="RFENDTC" DataType="date" SASFieldName="RFENDTC">
                <Description>
                    <TranslatedText xml:lang="en">Subject Reference End Date/Time</TranslatedText>
                </Description>
                <def:Origin Type="Derived" Source="Investigator"/>
            </ItemDef>
            <ItemDef OID="IT.DM.SITEID" Name="SITEID" DataType="text" SASFieldName="SITEID" Length="3">
                <Description>
                    <TranslatedText xml:lang="en">Study Site Identifier</TranslatedText>
                </Description>
                <def:Origin Type="Collected" Source="Investigator">
                    <def:DocumentRef leafID="LF.blankcrf">
                        <def:PDFPageRef PageRefs="3" Type="PhysicalRef"/>
                    </def:DocumentRef>
                </def:Origin>
            </ItemDef>
            <ItemDef OID="IT.DM.BRTHDTC" Name="BRTHDTC" DataType="date" SASFieldName="BRTHDTC">
                <Description>
                    <TranslatedText xml:lang="en">Date/Time of Birth</TranslatedText>
                </Description>
                <def:Origin Type="Collected" Source="Investigator">
                    <def:DocumentRef leafID="LF.blankcrf">
                        <def:PDFPageRef PageRefs="6" Type="PhysicalRef"/>
                    </def:DocumentRef>
                </def:Origin>
            </ItemDef>
            <ItemDef OID="IT.DM.AGE" Name="AGE" DataType="integer" SASFieldName="AGE" Length="2">
                <Description>
                    <TranslatedText xml:lang="en">Age</TranslatedText>
                </Description>
                <def:Origin Type="Derived" Source="Sponsor"/>
            </ItemDef>
            <ItemDef OID="IT.DM.AGEU" Name="AGEU" DataType="text" SASFieldName="AGEU" Length="5"
                     def:CommentOID="COM.AGEU">
                <Description>
                    <TranslatedText xml:lang="en">Age Units</TranslatedText>
                </Description>
                <def:Origin Type="Assigned" Source="Sponsor"/>
            </ItemDef>
            <ItemDef OID="IT.DM.SEX" Name="SEX" DataType="text" SASFieldName="SEX" Length="1">
                <Description>
                    <TranslatedText xml:lang="en">Sex</TranslatedText>
                </Description>
                <CodeListRef CodeListOID="CL.SEX"/>
                <def:Origin Type="Collected" Source="Investigator">
                    <def:DocumentRef leafID="LF.blankcrf">
                        <def:PDFPageRef PageRefs="6" Type="PhysicalRef"/>
                    </def:DocumentRef>
                </def:Origin>
            </ItemDef>
            <ItemDef OID="IT.DM.RACE" Name="RACE" DataType="text" SASFieldName="RACE" Length="40">
                <Description>
                    <TranslatedText xml:lang="en">Race</TranslatedText>
                </Description>
                <CodeListRef CodeListOID="CL.RACE"/>
                <def:Origin Type="Collected" Source="Investigator">
                    <def:DocumentRef leafID="LF.blankcrf">
                        <def:PDFPageRef PageRefs="6" Type="PhysicalRef"/>
                    </def:DocumentRef>
                </def:Origin>
            </ItemDef>
            <ItemDef OID="IT.DM.ETHNIC" Name="ETHNIC" DataType="text" SASFieldName="ETHNIC" Length="22">
                <Description>
                    <TranslatedText xml:lang="en">Ethnicity</TranslatedText>
                </Description>
                <CodeListRef CodeListOID="CL.ETHNIC"/>
                <def:Origin Type="Collected" Source="Investigator">
                    <def:DocumentRef leafID="LF.blankcrf">
                        <def:PDFPageRef PageRefs="6" Type="PhysicalRef"/>
                    </def:DocumentRef>
                </def:Origin>
            </ItemDef>
            <ItemDef OID="IT.DM.ARMCD" Name="ARMCD" DataType="text" SASFieldName="ARMCD" Length="8"
                     def:CommentOID="COM.ARMCD">
                <Description>
                    <TranslatedText xml:lang="en">Planned Arm Code</TranslatedText>
                </Description>
                <CodeListRef CodeListOID="CL.ARMCD"/>
                <def:Origin Type="Assigned" Source="Sponsor"/>
            </ItemDef>
            <ItemDef OID="IT.DM.ARM" Name="ARM" DataType="text" SASFieldName="ARM" Length="20" def:CommentOID="COM.ARM">
                <Description>
                    <TranslatedText xml:lang="en">Description of Planned Arm</TranslatedText>
                </Description>
                <CodeListRef CodeListOID="CL.ARM"/>
                <def:Origin Type="Assigned" Source="Sponsor"/>
            </ItemDef>
            <ItemDef OID="IT.DM.COUNTRY" Name="COUNTRY" DataType="text" SASFieldName="COUNTRY" Length="3">
                <Description>
                    <TranslatedText xml:lang="en">Country</TranslatedText>
                </Description>
                <CodeListRef CodeListOID="CL.ISO3166"/>
                <def:Origin Type="Assigned" Source="Sponsor"/>
            </ItemDef>
            <ItemDef OID="IT.DS.STUDYID" Name="STUDYID" DataType="text" SASFieldName="STUDYID" Length="7">
                <Description>
                    <TranslatedText xml:lang="en">Study Identifier</TranslatedText>
                </Description>
                <def:Origin Type="Protocol" Source="Sponsor"/>
            </ItemDef>
            <ItemDef OID="IT.DS.DOMAIN" Name="DOMAIN" DataType="text" SASFieldName="DOMAIN" Length="2">
                <Description>
                    <TranslatedText xml:lang="en">Domain Abbreviation</TranslatedText>
                </Description>
                <CodeListRef CodeListOID="CL.DS.DOMAIN"/>
                <def:Origin Type="Assigned" Source="Sponsor"/>
            </ItemDef>
            <ItemDef OID="IT.DS.USUBJID" Name="USUBJID" DataType="text" SASFieldName="USUBJID" Length="14">
                <Description>
                    <TranslatedText xml:lang="en">Unique Subject Identifier</TranslatedText>
                </Description>
                <def:Origin Type="Derived" Source="Sponsor"/>
            </ItemDef>
            <ItemDef OID="IT.DS.DSSEQ" Name="DSSEQ" DataType="integer" SASFieldName="DSSEQ" Length="1">
                <Description>
                    <TranslatedText xml:lang="en">Sequence Number</TranslatedText>
                </Description>
                <def:Origin Type="Derived" Source="Sponsor"/>
            </ItemDef>
            <ItemDef OID="IT.DS.DSTERM" Name="DSTERM" DataType="text" SASFieldName="DSTERM" Length="34">
                <Description>
                    <TranslatedText xml:lang="en">Reported Term for the Disposition Event</TranslatedText>
                </Description>
                <CodeListRef CodeListOID="CL.TREASFF"/>
                <def:Origin Type="Collected" Source="Investigator">
                    <def:DocumentRef leafID="LF.blankcrf">
                        <def:PDFPageRef PageRefs="6 16 18" Type="PhysicalRef"/>
                    </def:DocumentRef>
                </def:Origin>
            </ItemDef>
            <ItemDef OID="IT.DS.DSDECOD" Name="DSDECOD" DataType="text" SASFieldName="DSDECOD" Length="21"
                     def:CommentOID="COM.DSDECOD">
                <Description>
                    <TranslatedText xml:lang="en">Standardized Disposition Term</TranslatedText>
                </Description>
                <CodeListRef CodeListOID="CL.NCOMPLT"/>
                <def:Origin Type="Collected" Source="Investigator">
                    <def:DocumentRef leafID="LF.blankcrf">
                        <def:PDFPageRef PageRefs="6 16 18" Type="PhysicalRef"/>
                    </def:DocumentRef>
                </def:Origin>
            </ItemDef>
            <ItemDef OID="IT.DS.DSCAT" Name="DSCAT" DataType="text" SASFieldName="DSCAT" Length="18">
                <Description>
                    <TranslatedText xml:lang="en">Category for Disposition Event</TranslatedText>
                </Description>
                <CodeListRef CodeListOID="CL.DSCAT"/>
                <def:Origin Type="Assigned" Source="Sponsor"/>
            </ItemDef>
            <ItemDef OID="IT.DS.EPOCH" Name="EPOCH" DataType="text" SASFieldName="EPOCH" Length="9">
                <Description>
                    <TranslatedText xml:lang="en">Epoch</TranslatedText>
                </Description>
                <CodeListRef CodeListOID="CL.EPOCH"/>
                <def:Origin Type="Assigned" Source="Sponsor"/>
            </ItemDef>
            <ItemDef OID="IT.DS.DSSTDTC" Name="DSSTDTC" DataType="date" SASFieldName="DSSTDTC">
                <Description>
                    <TranslatedText xml:lang="en">Start Date/Time of Disposition Event</TranslatedText>
                </Description>
                <def:Origin Type="Collected" Source="Investigator">
                    <def:DocumentRef leafID="LF.blankcrf">
                        <def:PDFPageRef PageRefs="6 16 18" Type="PhysicalRef"/>
                    </def:DocumentRef>
                </def:Origin>
            </ItemDef>
            <ItemDef OID="IT.DS.DSSTDY" Name="DSSTDY" DataType="integer" SASFieldName="DSSTDY" Length="3">
                <Description>
                    <TranslatedText xml:lang="en">Study Day of Start of Disposition Event</TranslatedText>
                </Description>
                <def:Origin Type="Derived" Source="Sponsor"/>
            </ItemDef>
            <ItemDef OID="IT.EG.STUDYID" Name="STUDYID" DataType="text" SASFieldName="STUDYID" Length="7">
                <Description>
                    <TranslatedText xml:lang="en">Study Identifier</TranslatedText>
                </Description>
                <def:Origin Type="Protocol" Source="Sponsor"/>
            </ItemDef>
            <ItemDef OID="IT.EG.DOMAIN" Name="DOMAIN" DataType="text" SASFieldName="DOMAIN" Length="2">
                <Description>
                    <TranslatedText xml:lang="en">Domain Abbreviation</TranslatedText>
                </Description>
                <CodeListRef CodeListOID="CL.EG.DOMAIN"/>
                <def:Origin Type="Assigned" Source="Sponsor"/>
            </ItemDef>
            <ItemDef OID="IT.EG.USUBJID" Name="USUBJID" DataType="text" SASFieldName="USUBJID" Length="14">
                <Description>
                    <TranslatedText xml:lang="en">Unique Subject Identifier</TranslatedText>
                </Description>
                <def:Origin Type="Derived" Source="Sponsor"/>
            </ItemDef>
            <ItemDef OID="IT.EG.EGSEQ" Name="EGSEQ" DataType="integer" SASFieldName="EGSEQ" Length="2">
                <Description>
                    <TranslatedText xml:lang="en">Sequence Number</TranslatedText>
                </Description>
                <def:Origin Type="Derived" Source="Sponsor"/>
            </ItemDef>
            <ItemDef OID="IT.EG.EGSPID" Name="EGSPID" DataType="text" SASFieldName="EGSPID" Length="6"
                     def:CommentOID="COM.EGSPID">
                <Description>
                    <TranslatedText xml:lang="en">Sponsor-Defined Identifier</TranslatedText>
                </Description>
                <def:Origin Type="Assigned" Source="Sponsor"/>
            </ItemDef>
            <ItemDef OID="IT.EG.EGTESTCD" Name="EGTESTCD" DataType="text" SASFieldName="EGTESTCD" Length="6">
                <Description>
                    <TranslatedText xml:lang="en">ECG Test or Examination Short Name</TranslatedText>
                </Description>
                <CodeListRef CodeListOID="CL.EGTESTCD"/>
                <def:Origin Type="Assigned" Source="Sponsor"/>
            </ItemDef>
            <ItemDef OID="IT.EG.EGTEST" Name="EGTEST" DataType="text" SASFieldName="EGTEST" Length="40">
                <Description>
                    <TranslatedText xml:lang="en">ECG Test or Examination Name</TranslatedText>
                </Description>
                <CodeListRef CodeListOID="CL.EGTEST"/>
                <def:Origin Type="Collected" Source="Investigator">
                    <def:DocumentRef leafID="LF.blankcrf">
                        <def:PDFPageRef PageRefs="12" Type="PhysicalRef"/>
                    </def:DocumentRef>
                </def:Origin>
            </ItemDef>
            <ItemDef OID="IT.EG.EGPOS" Name="EGPOS" DataType="text" SASFieldName="EGPOS" Length="6"
                     def:CommentOID="COM.EGPOS">
                <Description>
                    <TranslatedText xml:lang="en">ECG Position of Subject</TranslatedText>
                </Description>
                <def:Origin Type="Protocol" Source="Sponsor"/>
            </ItemDef>
            <ItemDef OID="IT.EG.EGORRES" Name="EGORRES" DataType="text" SASFieldName="EGORRES" Length="15">
                <Description>
                    <TranslatedText xml:lang="en">Result or Finding in Original Units</TranslatedText>
                </Description>
                <def:Origin Type="Collected" Source="Investigator">
                    <def:DocumentRef leafID="LF.blankcrf">
                        <def:PDFPageRef PageRefs="12" Type="PhysicalRef"/>
                    </def:DocumentRef>
                </def:Origin>
                <def:ValueListRef ValueListOID="VL.EG.EGORRES"/>
            </ItemDef>
            <ItemDef OID="IT.EG.EGORRESU" Name="EGORRESU" DataType="text" SASFieldName="EGORRESU" Length="4">
                <Description>
                    <TranslatedText xml:lang="en">Original Units</TranslatedText>
                </Description>
                <CodeListRef CodeListOID="CL.EGRESU"/>
                <def:Origin Type="Collected" Source="Investigator">
                    <def:DocumentRef leafID="LF.blankcrf">
                        <def:PDFPageRef PageRefs="12" Type="PhysicalRef"/>
                    </def:DocumentRef>
                </def:Origin>
            </ItemDef>
            <ItemDef OID="IT.EG.EGSTRESC" Name="EGSTRESC" DataType="text" SASFieldName="EGSTRESC" Length="15">
                <Description>
                    <TranslatedText xml:lang="en">Character Result/Finding in Std Format</TranslatedText>
                </Description>
                <def:Origin Type="Derived" Source="Sponsor"/>
                <def:ValueListRef ValueListOID="VL.EG.EGSTRESC"/>
            </ItemDef>
            <ItemDef OID="IT.EG.EGSTRESN" Name="EGSTRESN" DataType="float" SASFieldName="EGSTRESN" Length="5"
                     SignificantDigits="1" def:DisplayFormat="5.1">
                <Description>
                    <TranslatedText xml:lang="en">Numeric Result/Finding in Standard Units</TranslatedText>
                </Description>
                <def:Origin Type="Derived" Source="Sponsor"/>
            </ItemDef>
            <ItemDef OID="IT.EG.EGSTRESU" Name="EGSTRESU" DataType="text" SASFieldName="EGSTRESU" Length="9">
                <Description>
                    <TranslatedText xml:lang="en">Standard Units</TranslatedText>
                </Description>
                <CodeListRef CodeListOID="CL.EGRESU"/>
                <def:Origin Type="Assigned" Source="Sponsor"/>
            </ItemDef>
            <ItemDef OID="IT.EG.EGBLFL" Name="EGBLFL" DataType="text" SASFieldName="EGBLFL" Length="1">
                <Description>
                    <TranslatedText xml:lang="en">Baseline Flag</TranslatedText>
                </Description>
                <CodeListRef CodeListOID="CL.NY"/>
                <def:Origin Type="Derived" Source="Sponsor"/>
            </ItemDef>
            <ItemDef OID="IT.EG.EGDRVFL" Name="EGDRVFL" DataType="text" SASFieldName="EGDRVFL" Length="1">
                <Description>
                    <TranslatedText xml:lang="en">Derived Flag</TranslatedText>
                </Description>
                <CodeListRef CodeListOID="CL.NY"/>
                <def:Origin Type="Derived" Source="Sponsor"/>
            </ItemDef>
            <ItemDef OID="IT.EG.EGEVAL" Name="EGEVAL" DataType="text" SASFieldName="EGEVAL" Length="12"
                     def:CommentOID="COM.EGEVAL">
                <Description>
                    <TranslatedText xml:lang="en">Evaluator</TranslatedText>
                </Description>
                <def:Origin Type="Assigned" Source="Sponsor"/>
            </ItemDef>
            <ItemDef OID="IT.EG.VISITNUM" Name="VISITNUM" DataType="integer" SASFieldName="VISITNUM" Length="2"
                     def:CommentOID="COM.EG.VISITNUM">
                <Description>
                    <TranslatedText xml:lang="en">Visit Number</TranslatedText>
                </Description>
                <def:Origin Type="Assigned" Source="Sponsor"/>
            </ItemDef>
            <ItemDef OID="IT.EG.VISIT" Name="VISIT" DataType="text" SASFieldName="VISIT" Length="7">
                <Description>
                    <TranslatedText xml:lang="en">Visit Name</TranslatedText>
                </Description>
                <def:Origin Type="Assigned" Source="Sponsor"/>
            </ItemDef>
            <ItemDef OID="IT.EG.VISITDY" Name="VISITDY" DataType="integer" SASFieldName="VISITDY" Length="3">
                <Description>
                    <TranslatedText xml:lang="en">Planned Study Day of Visit</TranslatedText>
                </Description>
                <def:Origin Type="Protocol" Source="Sponsor"/>
            </ItemDef>
            <ItemDef OID="IT.EG.EGDTC" Name="EGDTC" DataType="date" SASFieldName="EGDTC">
                <Description>
                    <TranslatedText xml:lang="en">Date/Time of ECG</TranslatedText>
                </Description>
                <def:Origin Type="Collected" Source="Investigator">
                    <def:DocumentRef leafID="LF.blankcrf">
                        <def:PDFPageRef PageRefs="12" Type="PhysicalRef"/>
                    </def:DocumentRef>
                </def:Origin>
            </ItemDef>
            <ItemDef OID="IT.EG.EGDY" Name="EGDY" DataType="integer" SASFieldName="EGDY" Length="3">
                <Description>
                    <TranslatedText xml:lang="en">Study Day of ECG</TranslatedText>
                </Description>
                <def:Origin Type="Derived" Source="Sponsor"/>
            </ItemDef>
            <ItemDef OID="IT.EX.STUDYID" Name="STUDYID" DataType="text" SASFieldName="STUDYID" Length="7">
                <Description>
                    <TranslatedText xml:lang="en">Study Identifier</TranslatedText>
                </Description>
                <def:Origin Type="Protocol" Source="Sponsor"/>
            </ItemDef>
            <ItemDef OID="IT.EX.DOMAIN" Name="DOMAIN" DataType="text" SASFieldName="DOMAIN" Length="2">
                <Description>
                    <TranslatedText xml:lang="en">Domain Abbreviation</TranslatedText>
                </Description>
                <CodeListRef CodeListOID="CL.EX.DOMAIN"/>
                <def:Origin Type="Assigned" Source="Sponsor"/>
            </ItemDef>
            <ItemDef OID="IT.EX.USUBJID" Name="USUBJID" DataType="text" SASFieldName="USUBJID" Length="14">
                <Description>
                    <TranslatedText xml:lang="en">Unique Subject Identifier</TranslatedText>
                </Description>
                <def:Origin Type="Derived" Source="Sponsor"/>
            </ItemDef>
            <ItemDef OID="IT.EX.EXSEQ" Name="EXSEQ" DataType="integer" SASFieldName="EXSEQ" Length="1">
                <Description>
                    <TranslatedText xml:lang="en">Sequence Number</TranslatedText>
                </Description>
                <def:Origin Type="Derived" Source="Sponsor"/>
            </ItemDef>
            <ItemDef OID="IT.EX.EXTRT" Name="EXTRT" DataType="text" SASFieldName="EXTRT" Length="20">
                <Description>
                    <TranslatedText xml:lang="en">Name of Actual Treatment</TranslatedText>
                </Description>
                <CodeListRef CodeListOID="CL.EXTRT"/>
                <def:Origin Type="Derived" Source="Sponsor"/>
            </ItemDef>
            <ItemDef OID="IT.EX.EXDOSE" Name="EXDOSE" DataType="integer" SASFieldName="EXDOSE" Length="2">
                <Description>
                    <TranslatedText xml:lang="en">Dose per Administration</TranslatedText>
                </Description>
                <def:Origin Type="Derived" Source="Sponsor"/>
            </ItemDef>
            <ItemDef OID="IT.EX.EXDOSU" Name="EXDOSU" DataType="text" SASFieldName="EXDOSU" Length="2">
                <Description>
                    <TranslatedText xml:lang="en">Dose Units</TranslatedText>
                </Description>
                <def:Origin Type="Derived" Source="Sponsor"/>
            </ItemDef>
            <ItemDef OID="IT.EX.EXDOSFRM" Name="EXDOSFRM" DataType="text" SASFieldName="EXDOSFRM" Length="7">
                <Description>
                    <TranslatedText xml:lang="en">Dose Form</TranslatedText>
                </Description>
                <CodeListRef CodeListOID="CL.FRM"/>
                <def:Origin Type="Collected" Source="Investigator">
                    <def:DocumentRef leafID="LF.blankcrf">
                        <def:PDFPageRef PageRefs="20" Type="PhysicalRef"/>
                    </def:DocumentRef>
                </def:Origin>
            </ItemDef>
            <ItemDef OID="IT.EX.EXSTDTC" Name="EXSTDTC" DataType="date" SASFieldName="EXSTDTC">
                <Description>
                    <TranslatedText xml:lang="en">Start Date/Time of Treatment</TranslatedText>
                </Description>
                <def:Origin Type="Collected" Source="Investigator">
                    <def:DocumentRef leafID="LF.blankcrf">
                        <def:PDFPageRef PageRefs="20" Type="PhysicalRef"/>
                    </def:DocumentRef>
                </def:Origin>
            </ItemDef>
            <ItemDef OID="IT.EX.EXENDTC" Name="EXENDTC" DataType="date" SASFieldName="EXENDTC">
                <Description>
                    <TranslatedText xml:lang="en">End Date/Time of Treatment</TranslatedText>
                </Description>
                <def:Origin Type="Collected" Source="Investigator">
                    <def:DocumentRef leafID="LF.blankcrf">
                        <def:PDFPageRef PageRefs="20" Type="PhysicalRef"/>
                    </def:DocumentRef>
                </def:Origin>
            </ItemDef>
            <ItemDef OID="IT.EX.EXSTDY" Name="EXSTDY" DataType="integer" SASFieldName="EXSTDY" Length="2">
                <Description>
                    <TranslatedText xml:lang="en">Study Day of Start of Treatment</TranslatedText>
                </Description>
                <def:Origin Type="Derived" Source="Sponsor"/>
            </ItemDef>
            <ItemDef OID="IT.EX.EXENDY" Name="EXENDY" DataType="integer" SASFieldName="EXENDY" Length="2">
                <Description>
                    <TranslatedText xml:lang="en">Study Day of End of Treatment</TranslatedText>
                </Description>
                <def:Origin Type="Derived" Source="Sponsor"/>
            </ItemDef>
            <ItemDef OID="IT.IE.STUDYID" Name="STUDYID" DataType="text" SASFieldName="STUDYID" Length="7">
                <Description>
                    <TranslatedText xml:lang="en">Study Identifier</TranslatedText>
                </Description>
                <def:Origin Type="Protocol" Source="Sponsor"/>
            </ItemDef>
            <ItemDef OID="IT.IE.DOMAIN" Name="DOMAIN" DataType="text" SASFieldName="DOMAIN" Length="2">
                <Description>
                    <TranslatedText xml:lang="en">Domain Abbreviation</TranslatedText>
                </Description>
                <CodeListRef CodeListOID="CL.IE.DOMAIN"/>
                <def:Origin Type="Assigned" Source="Sponsor"/>
            </ItemDef>
            <ItemDef OID="IT.IE.USUBJID" Name="USUBJID" DataType="text" SASFieldName="USUBJID" Length="14">
                <Description>
                    <TranslatedText xml:lang="en">Unique Subject Identifier</TranslatedText>
                </Description>
                <def:Origin Type="Derived" Source="Sponsor"/>
            </ItemDef>
            <ItemDef OID="IT.IE.IESEQ" Name="IESEQ" DataType="integer" SASFieldName="IESEQ" Length="1">
                <Description>
                    <TranslatedText xml:lang="en">Sequence Number</TranslatedText>
                </Description>
                <def:Origin Type="Derived" Source="Sponsor"/>
            </ItemDef>
            <ItemDef OID="IT.IE.IETESTCD" Name="IETESTCD" DataType="text" SASFieldName="IETESTCD" Length="6">
                <Description>
                    <TranslatedText xml:lang="en">Inclusion/Exclusion Criterion Short Name</TranslatedText>
                </Description>
                <CodeListRef CodeListOID="CL.IETESTCD"/>
                <def:Origin Type="Assigned" Source="Sponsor"/>
            </ItemDef>
            <ItemDef OID="IT.IE.IETEST" Name="IETEST" DataType="text" SASFieldName="IETEST" Length="54">
                <Description>
                    <TranslatedText xml:lang="en">Inclusion/Exclusion Criterion</TranslatedText>
                </Description>
                <CodeListRef CodeListOID="CL.IETEST"/>
                <def:Origin Type="Collected" Source="Investigator">
                    <def:DocumentRef leafID="LF.blankcrf">
                        <def:PDFPageRef PageRefs="4 5" Type="PhysicalRef"/>
                    </def:DocumentRef>
                </def:Origin>
            </ItemDef>
            <ItemDef OID="IT.IE.IECAT" Name="IECAT" DataType="text" SASFieldName="IECAT" Length="9">
                <Description>
                    <TranslatedText xml:lang="en">Inclusion/Exclusion Category</TranslatedText>
                </Description>
                <def:Origin Type="Collected" Source="Investigator">
                    <def:DocumentRef leafID="LF.blankcrf">
                        <def:PDFPageRef PageRefs="4 5" Type="PhysicalRef"/>
                    </def:DocumentRef>
                </def:Origin>
            </ItemDef>
            <ItemDef OID="IT.IE.IEORRES" Name="IEORRES" DataType="text" SASFieldName="IEORRES" Length="1">
                <Description>
                    <TranslatedText xml:lang="en">I/E Criterion Original Result</TranslatedText>
                </Description>
                <def:Origin Type="Collected" Source="Investigator">
                    <def:DocumentRef leafID="LF.blankcrf">
                        <def:PDFPageRef PageRefs="4 5" Type="PhysicalRef"/>
                    </def:DocumentRef>
                </def:Origin>
                <def:ValueListRef ValueListOID="VL.IE.IEORRES"/>
            </ItemDef>
            <ItemDef OID="IT.IE.IESTRESC" Name="IESTRESC" DataType="text" SASFieldName="IESTRESC" Length="1">
                <Description>
                    <TranslatedText xml:lang="en">I/E Criterion Result in Std Format</TranslatedText>
                </Description>
                <def:Origin Type="Derived" Source="Sponsor"/>
            </ItemDef>
            <ItemDef OID="IT.IE.VISITNUM" Name="VISITNUM" DataType="integer" SASFieldName="VISITNUM" Length="1"
                     def:CommentOID="COM.IE.VISITNUM">
                <Description>
                    <TranslatedText xml:lang="en">Visit Number</TranslatedText>
                </Description>
                <def:Origin Type="Assigned" Source="Sponsor"/>
            </ItemDef>
            <ItemDef OID="IT.IE.VISIT" Name="VISIT" DataType="text" SASFieldName="VISIT" Length="6">
                <Description>
                    <TranslatedText xml:lang="en">Visit Name</TranslatedText>
                </Description>
                <def:Origin Type="Assigned" Source="Sponsor"/>
            </ItemDef>
            <ItemDef OID="IT.IE.IEDTC" Name="IEDTC" DataType="date" SASFieldName="IEDTC">
                <Description>
                    <TranslatedText xml:lang="en">Date/Time of Collection</TranslatedText>
                </Description>
                <def:Origin Type="Collected" Source="Investigator">
                    <def:DocumentRef leafID="LF.blankcrf">
                        <def:PDFPageRef PageRefs="4 5" Type="PhysicalRef"/>
                    </def:DocumentRef>
                </def:Origin>
            </ItemDef>
            <ItemDef OID="IT.LB.STUDYID" Name="STUDYID" DataType="text" SASFieldName="STUDYID" Length="7">
                <Description>
                    <TranslatedText xml:lang="en">Study Identifier</TranslatedText>
                </Description>
                <def:Origin Type="Protocol" Source="Sponsor"/>
            </ItemDef>
            <ItemDef OID="IT.LB.DOMAIN" Name="DOMAIN" DataType="text" SASFieldName="DOMAIN" Length="2">
                <Description>
                    <TranslatedText xml:lang="en">Domain Abbreviation</TranslatedText>
                </Description>
                <CodeListRef CodeListOID="CL.LB.DOMAIN"/>
                <def:Origin Type="Assigned" Source="Sponsor"/>
            </ItemDef>
            <ItemDef OID="IT.LB.USUBJID" Name="USUBJID" DataType="text" SASFieldName="USUBJID" Length="14">
                <Description>
                    <TranslatedText xml:lang="en">Unique Subject Identifier</TranslatedText>
                </Description>
                <def:Origin Type="Derived" Source="Sponsor"/>
            </ItemDef>
            <ItemDef OID="IT.LB.LBSEQ" Name="LBSEQ" DataType="integer" SASFieldName="LBSEQ" Length="2">
                <Description>
                    <TranslatedText xml:lang="en">Sequence Number</TranslatedText>
                </Description>
                <def:Origin Type="Derived" Source="Sponsor"/>
            </ItemDef>
            <ItemDef OID="IT.LB.LBREFID" Name="LBREFID" DataType="text" SASFieldName="LBREFID" Length="7"
                     def:CommentOID="COM.LBREFID">
                <Description>
                    <TranslatedText xml:lang="en">Specimen ID</TranslatedText>
                </Description>
                <def:Origin Type="Collected" Source="Vendor"/>
            </ItemDef>
            <ItemDef OID="IT.LB.LBTESTCD" Name="LBTESTCD" DataType="text" SASFieldName="LBTESTCD" Length="7">
                <Description>
                    <TranslatedText xml:lang="en">Lab Test or Examination Short Name</TranslatedText>
                </Description>
                <CodeListRef CodeListOID="CL.LBTESTCD"/>
                <def:Origin Type="Assigned" Source="Sponsor"/>
            </ItemDef>
            <ItemDef OID="IT.LB.LBTEST" Name="LBTEST" DataType="text" SASFieldName="LBTEST" Length="22">
                <Description>
                    <TranslatedText xml:lang="en">Lab Test or Examination Name</TranslatedText>
                </Description>
                <CodeListRef CodeListOID="CL.LBTEST"/>
                <def:Origin Type="Collected" Source="Vendor"/>
            </ItemDef>
            <ItemDef OID="IT.LB.LBCAT" Name="LBCAT" DataType="text" SASFieldName="LBCAT" Length="10">
                <Description>
                    <TranslatedText xml:lang="en">Category for Lab Test</TranslatedText>
                </Description>
                <def:Origin Type="Collected" Source="Vendor"/>
            </ItemDef>
            <ItemDef OID="IT.LB.LBORRES" Name="LBORRES" DataType="text" SASFieldName="LBORRES" Length="8">
                <Description>
                    <TranslatedText xml:lang="en">Result or Finding in Original Units</TranslatedText>
                </Description>
                <def:Origin Type="Collected" Source="Vendor"/>
                <def:ValueListRef ValueListOID="VL.LB.LBORRES"/>
            </ItemDef>
            <ItemDef OID="IT.LB.LBORRESU" Name="LBORRESU" DataType="text" SASFieldName="LBORRESU" Length="7">
                <Description>
                    <TranslatedText xml:lang="en">Original Units</TranslatedText>
                </Description>
                <CodeListRef CodeListOID="CL.LBRESU"/>
                <def:Origin Type="Collected" Source="Vendor"/>
            </ItemDef>
            <ItemDef OID="IT.LB.LBORNRLO" Name="LBORNRLO" DataType="text" SASFieldName="LBORNRLO" Length="8">
                <Description>
                    <TranslatedText xml:lang="en">Reference Range Lower Limit in Orig Unit</TranslatedText>
                </Description>
                <def:Origin Type="Collected" Source="Vendor"/>
            </ItemDef>
            <ItemDef OID="IT.LB.LBORNRHI" Name="LBORNRHI" DataType="text" SASFieldName="LBORNRHI" Length="8">
                <Description>
                    <TranslatedText xml:lang="en">Reference Range Upper Limit in Orig Unit</TranslatedText>
                </Description>
                <def:Origin Type="Collected" Source="Vendor"/>
            </ItemDef>
            <ItemDef OID="IT.LB.LBSTRESC" Name="LBSTRESC" DataType="text" SASFieldName="LBSTRESC" Length="8">
                <Description>
                    <TranslatedText xml:lang="en">Character Result/Finding in Std Format</TranslatedText>
                </Description>
                <def:Origin Type="Collected" Source="Vendor"/>
            </ItemDef>
            <ItemDef OID="IT.LB.LBSTRESN" Name="LBSTRESN" DataType="float" SASFieldName="LBSTRESN" Length="5"
                     SignificantDigits="2" def:DisplayFormat="5.2">
                <Description>
                    <TranslatedText xml:lang="en">Numeric Result/Finding in Standard Units</TranslatedText>
                </Description>
                <def:Origin Type="Collected" Source="Vendor"/>
            </ItemDef>
            <ItemDef OID="IT.LB.LBSTRESU" Name="LBSTRESU" DataType="text" SASFieldName="LBSTRESU" Length="7">
                <Description>
                    <TranslatedText xml:lang="en">Standard Units</TranslatedText>
                </Description>
                <def:Origin Type="Collected" Source="Vendor"/>
            </ItemDef>
            <ItemDef OID="IT.LB.LBSTNRLO" Name="LBSTNRLO" DataType="float" SASFieldName="LBSTNRLO" Length="4"
                     SignificantDigits="2" def:DisplayFormat="4.2">
                <Description>
                    <TranslatedText xml:lang="en">Reference Range Lower Limit-Std Units</TranslatedText>
                </Description>
                <def:Origin Type="Collected" Source="Vendor"/>
            </ItemDef>
            <ItemDef OID="IT.LB.LBSTNRHI" Name="LBSTNRHI" DataType="float" SASFieldName="LBSTNRHI" Length="4"
                     SignificantDigits="2" def:DisplayFormat="4.2">
                <Description>
                    <TranslatedText xml:lang="en">Reference Range Upper Limit-Std Units</TranslatedText>
                </Description>
                <def:Origin Type="Collected" Source="Vendor"/>
            </ItemDef>
            <ItemDef OID="IT.LB.LBSTNRC" Name="LBSTNRC" DataType="text" SASFieldName="LBSTNRC" Length="19">
                <Description>
                    <TranslatedText xml:lang="en">Reference Range for Char Rslt-Std Units</TranslatedText>
                </Description>
                <def:Origin Type="Collected" Source="Vendor"/>
            </ItemDef>
            <ItemDef OID="IT.LB.LBNRIND" Name="LBNRIND" DataType="text" SASFieldName="LBNRIND" Length="20">
                <Description>
                    <TranslatedText xml:lang="en">Reference Range Indicator</TranslatedText>
                </Description>
                <CodeListRef CodeListOID="CL.NRIND"/>
                <def:Origin Type="Derived" Source="Sponsor"/>
            </ItemDef>
            <ItemDef OID="IT.LB.LBSPEC" Name="LBSPEC" DataType="text" SASFieldName="LBSPEC" Length="5">
                <Description>
                    <TranslatedText xml:lang="en">Specimen Type</TranslatedText>
                </Description>
                <CodeListRef CodeListOID="CL.SPECTYPE"/>
                <def:Origin Type="Collected" Source="Vendor"/>
            </ItemDef>
            <ItemDef OID="IT.LB.LBMETHOD" Name="LBMETHOD" DataType="text" SASFieldName="LBMETHOD" Length="8">
                <Description>
                    <TranslatedText xml:lang="en">Method of Test or Examination</TranslatedText>
                </Description>
                <CodeListRef CodeListOID="CL.METHOD"/>
                <def:Origin Type="Collected" Source="Vendor"/>
            </ItemDef>
            <ItemDef OID="IT.LB.LBBLFL" Name="LBBLFL" DataType="text" SASFieldName="LBBLFL" Length="1">
                <Description>
                    <TranslatedText xml:lang="en">Baseline Flag</TranslatedText>
                </Description>
                <CodeListRef CodeListOID="CL.NY"/>
                <def:Origin Type="Derived" Source="Sponsor"/>
            </ItemDef>
            <ItemDef OID="IT.LB.LBFAST" Name="LBFAST" DataType="text" SASFieldName="LBFAST" Length="1">
                <Description>
                    <TranslatedText xml:lang="en">Fasting Status</TranslatedText>
                </Description>
                <CodeListRef CodeListOID="CL.NY"/>
                <def:Origin Type="Collected" Source="Vendor"/>
            </ItemDef>
            <ItemDef OID="IT.LB.VISITNUM" Name="VISITNUM" DataType="integer" SASFieldName="VISITNUM" Length="2">
                <Description>
                    <TranslatedText xml:lang="en">Visit Number</TranslatedText>
                </Description>
                <def:Origin Type="Collected" Source="Vendor"/>
            </ItemDef>
            <ItemDef OID="IT.LB.VISIT" Name="VISIT" DataType="text" SASFieldName="VISIT" Length="7">
                <Description>
                    <TranslatedText xml:lang="en">Visit Name</TranslatedText>
                </Description>
                <def:Origin Type="Collected" Source="Vendor"/>
            </ItemDef>
            <ItemDef OID="IT.LB.VISITDY" Name="VISITDY" DataType="integer" SASFieldName="VISITDY" Length="3">
                <Description>
                    <TranslatedText xml:lang="en">Planned Study Day of Visit</TranslatedText>
                </Description>
                <def:Origin Type="Protocol" Source="Sponsor"/>
            </ItemDef>
            <ItemDef OID="IT.LB.LBDTC" Name="LBDTC" DataType="datetime" SASFieldName="LBDTC">
                <Description>
                    <TranslatedText xml:lang="en">Date/Time of Specimen Collection</TranslatedText>
                </Description>
                <def:Origin Type="Collected" Source="Vendor"/>
            </ItemDef>
            <ItemDef OID="IT.LB.LBDY" Name="LBDY" DataType="integer" SASFieldName="LBDY" Length="3">
                <Description>
                    <TranslatedText xml:lang="en">Study Day of Specimen Collection</TranslatedText>
                </Description>
                <def:Origin Type="Derived" Source="Sponsor"/>
            </ItemDef>
            <ItemDef OID="IT.MH.STUDYID" Name="STUDYID" DataType="text" SASFieldName="STUDYID" Length="7">
                <Description>
                    <TranslatedText xml:lang="en">Study Identifier</TranslatedText>
                </Description>
                <def:Origin Type="Protocol" Source="Sponsor"/>
            </ItemDef>
            <ItemDef OID="IT.MH.DOMAIN" Name="DOMAIN" DataType="text" SASFieldName="DOMAIN" Length="2">
                <Description>
                    <TranslatedText xml:lang="en">Domain Abbreviation</TranslatedText>
                </Description>
                <CodeListRef CodeListOID="CL.MH.DOMAIN"/>
                <def:Origin Type="Assigned" Source="Sponsor"/>
            </ItemDef>
            <ItemDef OID="IT.MH.USUBJID" Name="USUBJID" DataType="text" SASFieldName="USUBJID" Length="14">
                <Description>
                    <TranslatedText xml:lang="en">Unique Subject Identifier</TranslatedText>
                </Description>
                <def:Origin Type="Derived" Source="Sponsor"/>
            </ItemDef>
            <ItemDef OID="IT.MH.MHSEQ" Name="MHSEQ" DataType="integer" SASFieldName="MHSEQ" Length="1">
                <Description>
                    <TranslatedText xml:lang="en">Sequence Number</TranslatedText>
                </Description>
                <def:Origin Type="Derived" Source="Sponsor"/>
            </ItemDef>
            <ItemDef OID="IT.MH.MHTERM" Name="MHTERM" DataType="text" SASFieldName="MHTERM" Length="169">
                <Description>
                    <TranslatedText xml:lang="en">Reported Term for the Medical History</TranslatedText>
                </Description>
                <def:Origin Type="Collected" Source="Investigator">
                    <def:DocumentRef leafID="LF.blankcrf">
                        <def:PDFPageRef PageRefs="7 8" Type="PhysicalRef"/>
                    </def:DocumentRef>
                </def:Origin>
            </ItemDef>
            <ItemDef OID="IT.MH.MHCAT" Name="MHCAT" DataType="text" SASFieldName="MHCAT" Length="28">
                <Description>
                    <TranslatedText xml:lang="en">Category for Medical History</TranslatedText>
                </Description>
                <CodeListRef CodeListOID="CL.MHCAT"/>
                <def:Origin Type="Collected" Source="Investigator">
                    <def:DocumentRef leafID="LF.blankcrf">
                        <def:PDFPageRef PageRefs="7 8" Type="PhysicalRef"/>
                    </def:DocumentRef>
                </def:Origin>
            </ItemDef>
            <ItemDef OID="IT.MH.MHPRESP" Name="MHPRESP" DataType="text" SASFieldName="MHPRESP" Length="2">
                <Description>
                    <TranslatedText xml:lang="en">Medical History Event Pre-Specified</TranslatedText>
                </Description>
                <CodeListRef CodeListOID="CL.NY"/>
                <def:Origin Type="Assigned" Source="Sponsor"/>
            </ItemDef>
            <ItemDef OID="IT.MH.MHOCCUR" Name="MHOCCUR" DataType="text" SASFieldName="MHOCCUR" Length="2">
                <Description>
                    <TranslatedText xml:lang="en">Medical History Occurrence</TranslatedText>
                </Description>
                <CodeListRef CodeListOID="CL.NY"/>
                <def:Origin Type="Assigned" Source="Sponsor"/>
            </ItemDef>
            <ItemDef OID="IT.MH.MHBODSYS" Name="MHBODSYS" DataType="text" SASFieldName="MHBODSYS" Length="23"
                     def:CommentOID="COM.MHBODSYS">
                <Description>
                    <TranslatedText xml:lang="en">Body System or Organ Class</TranslatedText>
                </Description>
                <CodeListRef CodeListOID="CL.MHBODSYS"/>
                <def:Origin Type="Assigned" Source="Sponsor"/>
            </ItemDef>
            <ItemDef OID="IT.MH.MHDTC" Name="MHDTC" DataType="date" SASFieldName="MHDTC">
                <Description>
                    <TranslatedText xml:lang="en">Date/Time of History Collection</TranslatedText>
                </Description>
                <def:Origin Type="Collected" Source="Investigator">
                    <def:DocumentRef leafID="LF.blankcrf">
                        <def:PDFPageRef PageRefs="7 8" Type="PhysicalRef"/>
                    </def:DocumentRef>
                </def:Origin>
            </ItemDef>
            <ItemDef OID="IT.MH.MHSTDTC" Name="MHSTDTC" DataType="date" SASFieldName="MHSTDTC">
                <Description>
                    <TranslatedText xml:lang="en">Start Date/Time of Medical History Event</TranslatedText>
                </Description>
                <def:Origin Type="Collected" Source="Investigator">
                    <def:DocumentRef leafID="LF.blankcrf">
                        <def:PDFPageRef PageRefs="7 8" Type="PhysicalRef"/>
                    </def:DocumentRef>
                </def:Origin>
            </ItemDef>
            <ItemDef OID="IT.MH.MHENRF" Name="MHENRF" DataType="text" SASFieldName="MHENRF" Length="30"
                     def:CommentOID="COM.MHENRF">
                <Description>
                    <TranslatedText xml:lang="en">End Relative to Reference Period</TranslatedText>
                </Description>
                <CodeListRef CodeListOID="CL.MHENRF"/>
                <def:Origin Type="Collected" Source="Investigator">
                    <def:DocumentRef leafID="LF.blankcrf">
                        <def:PDFPageRef PageRefs="8" Type="PhysicalRef"/>
                    </def:DocumentRef>
                </def:Origin>
            </ItemDef>
            <ItemDef OID="IT.PE.STUDYID" Name="STUDYID" DataType="text" SASFieldName="STUDYID" Length="7">
                <Description>
                    <TranslatedText xml:lang="en">Study Identifier</TranslatedText>
                </Description>
                <def:Origin Type="Protocol" Source="Sponsor"/>
            </ItemDef>
            <ItemDef OID="IT.PE.DOMAIN" Name="DOMAIN" DataType="text" SASFieldName="DOMAIN" Length="2">
                <Description>
                    <TranslatedText xml:lang="en">Domain Abbreviation</TranslatedText>
                </Description>
                <CodeListRef CodeListOID="CL.PE.DOMAIN"/>
                <def:Origin Type="Assigned" Source="Sponsor"/>
            </ItemDef>
            <ItemDef OID="IT.PE.USUBJID" Name="USUBJID" DataType="text" SASFieldName="USUBJID" Length="14">
                <Description>
                    <TranslatedText xml:lang="en">Unique Subject Identifier</TranslatedText>
                </Description>
                <def:Origin Type="Derived" Source="Sponsor"/>
            </ItemDef>
            <ItemDef OID="IT.PE.PESEQ" Name="PESEQ" DataType="integer" SASFieldName="PESEQ" Length="2">
                <Description>
                    <TranslatedText xml:lang="en">Sequence Number</TranslatedText>
                </Description>
                <def:Origin Type="Derived" Source="Sponsor"/>
            </ItemDef>
            <ItemDef OID="IT.PE.PETESTCD" Name="PETESTCD" DataType="text" SASFieldName="PETESTCD" Length="4">
                <Description>
                    <TranslatedText xml:lang="en">Body System Examined Short Name</TranslatedText>
                </Description>
                <CodeListRef CodeListOID="CL.PETESTCD"/>
                <def:Origin Type="Assigned" Source="Sponsor"/>
            </ItemDef>
            <ItemDef OID="IT.PE.PETEST" Name="PETEST" DataType="text" SASFieldName="PETEST" Length="29">
                <Description>
                    <TranslatedText xml:lang="en">Body System Examined</TranslatedText>
                </Description>
                <CodeListRef CodeListOID="CL.PETEST"/>
                <def:Origin Type="Collected" Source="Investigator">
                    <def:DocumentRef leafID="LF.blankcrf">
