{
  "datasetJSONCreationDateTime": "2026-05-17T20:12:06.887232+00:00",
  "datasetJSONVersion": "1.1.0",
  "fileOID": "ODM.DEFINE21.d611c8de-4b6f-44ff-ade2-b82a6aab83d1",
  "studyOID": "ODM.LZZT - NEW.Version1.Design1",
  "metaDataVersionOID": "MDV.LZZT---NEW",
  "itemGroupOID": "IG.DEFINE.ORIGINS",
  "records": 433,
  "name": "origins",
  "label": "Origin Definitions",
  "columns": [
    {
      "itemOID": "DEFINE.OR.ITEMOID",
      "name": "ItemOID",
      "label": "Item OID",
      "dataType": "string",
      "keySequence": 1
    },
    {
      "itemOID": "DEFINE.OR.ORDERNUMBER",
      "name": "OrderNumber",
      "label": "Origin Order",
      "dataType": "integer",
      "keySequence": 2
    },
    {
      "itemOID": "DEFINE.OR.TYPE",
      "name": "Type",
      "label": "Origin Type",
      "dataType": "string"
    },
    {
      "itemOID": "DEFINE.OR.SOURCE",
      "name": "Source",
      "label": "Origin Source",
      "dataType": "string"
    },
    {
      "itemOID": "DEFINE.OR.DESCRIPTIONTEXT",
      "name": "DescriptionText",
      "label": "Description",
      "dataType": "string"
    },
    {
      "itemOID": "DEFINE.OR.DESCRIPTIONLANG",
      "name": "DescriptionLang",
      "label": "Description Language",
      "dataType": "string"
    },
    {
      "itemOID": "DEFINE.OR.DOCUMENTREFLEAFIDS",
      "name": "DocumentRefLeafIDs",
      "label": "Document Ref Leaf IDs",
      "dataType": "string"
    }
  ],
  "rows": [
    [
      "IT.DS.STUDYID",
      1,
      "__PLACEHOLDER__",
      "__PLACEHOLDER__",
      null,
      null,
      null
    ],
    [
      "IT.DS.DOMAIN",
      1,
      "__PLACEHOLDER__",
      "__PLACEHOLDER__",
      null,
      null,
      null
    ],
    [
      "IT.DS.USUBJID",
      1,
      "__PLACEHOLDER__",
      "__PLACEHOLDER__",
      null,
      null,
      null
    ],
    [
      "IT.DS.DSSEQ",
      1,
      "__PLACEHOLDER__",
      "__PLACEHOLDER__",
      null,
      null,
      null
    ],
    [
      "IT.DS.DSTERM",
      1,
      "Collected",
      "Investigator",
      null,
      null,
      "LF.acrf"
    ],
    [
      "IT.DS.DSDECOD",
      1,
      "Assigned",
      "Sponsor",
      null,
      null,
      null
    ],
    [
      "IT.DS.DSCAT",
      1,
      "Assigned",
      "Sponsor",
      null,
      null,
      null
    ],
    [
      "IT.DS.DSSCAT",
      1,
      "Assigned",
      "Sponsor",
      null,
      null,
      null
    ],
    [
      "IT.DS.DSSTDTC",
      1,
      "Collected",
      "Investigator",
      null,
      null,
      "LF.acrf"
    ],
    [
      "IT.DS.DSSTDY",
      1,
      "__PLACEHOLDER__",
      "__PLACEHOLDER__",
      null,
      null,
      null
    ],
    [
      "IT.DM.STUDYID",
      1,
      "__PLACEHOLDER__",
      "__PLACEHOLDER__",
      null,
      null,
      null
    ],
    [
      "IT.DM.DOMAIN",
      1,
      "__PLACEHOLDER__",
      "__PLACEHOLDER__",
      null,
      null,
      null
    ],
    [
      "IT.DM.USUBJID",
      1,
      "__PLACEHOLDER__",
      "__PLACEHOLDER__",
      null,
      null,
      null
    ],
    [
      "IT.DM.SUBJID",
      1,
      "__PLACEHOLDER__",
      "__PLACEHOLDER__",
      null,
      null,
      null
    ],
    [
      "IT.DM.RFSTDTC",
      1,
      "__PLACEHOLDER__",
      "__PLACEHOLDER__",
      null,
      null,
      null
    ],
    [
      "IT.DM.RFENDTC",
      1,
      "__PLACEHOLDER__",
      "__PLACEHOLDER__",
      null,
      null,
      null
    ],
    [
      "IT.DM.RFXSTDTC",
      1,
      "__PLACEHOLDER__",
      "__PLACEHOLDER__",
      null,
      null,
      null
    ],
    [
      "IT.DM.RFXENDTC",
      1,
      "__PLACEHOLDER__",
      "__PLACEHOLDER__",
      null,
      null,
      null
    ],
    [
      "IT.DM.RFICDTC",
      1,
      "__PLACEHOLDER__",
      "__PLACEHOLDER__",
      null,
      null,
      null
    ],
    [
      "IT.DM.RFPENDTC",
      1,
      "__PLACEHOLDER__",
      "__PLACEHOLDER__",
      null,
      null,
      null
    ],
    [
      "IT.DM.DTHDTC",
      1,
      "__PLACEHOLDER__",
      "__PLACEHOLDER__",
      null,
      null,
      null
    ],
    [
      "IT.DM.DTHFL",
      1,
      "__PLACEHOLDER__",
      "__PLACEHOLDER__",
      null,
      null,
      null
    ],
    [
      "IT.DM.SITEID",
      1,
      "__PLACEHOLDER__",
      "__PLACEHOLDER__",
      null,
      null,
      null
    ],
    [
      "IT.DM.AGE",
      1,
      "Collected",
      "Investigator",
      null,
      null,
      "LF.acrf"
    ],
    [
      "IT.DM.AGEU",
      1,
      "Collected",
      "Investigator",
      null,
      null,
      "LF.acrf"
    ],
    [
      "IT.DM.SEX",
      1,
      "Collected",
      "Investigator",
      null,
      null,
      "LF.acrf"
    ],
    [
      "IT.DM.RACE",
      1,
      "Collected",
      "Investigator",
      null,
      null,
      "LF.acrf"
    ],
    [
      "IT.DM.ETHNIC",
      1,
      "Collected",
      "Investigator",
      null,
      null,
      "LF.acrf"
    ],
    [
      "IT.DM.ARMCD",
      1,
      "__PLACEHOLDER__",
      "__PLACEHOLDER__",
      null,
      null,
      null
    ],
    [
      "IT.DM.ARM",
      1,
      "__PLACEHOLDER__",
      "__PLACEHOLDER__",
      null,
      null,
      null
    ],
    [
      "IT.DM.ACTARMCD",
      1,
      "__PLACEHOLDER__",
      "__PLACEHOLDER__",
      null,
      null,
      null
    ],
    [
      "IT.DM.ACTARM",
      1,
      "__PLACEHOLDER__",
      "__PLACEHOLDER__",
      null,
      null,
      null
    ],
    [
      "IT.DM.ARMNRS",
      1,
      "__PLACEHOLDER__",
      "__PLACEHOLDER__",
      null,
      null,
      null
    ],
    [
      "IT.DM.ACTARMUD",
      1,
      "__PLACEHOLDER__",
      "__PLACEHOLDER__",
      null,
      null,
      null
    ],
    [
      "IT.DM.COUNTRY",
      1,
      "__PLACEHOLDER__",
      "__PLACEHOLDER__",
      null,
      null,
      null
    ],
    [
      "IT.DM.DMDTC",
      1,
      "__PLACEHOLDER__",
      "__PLACEHOLDER__",
      null,
      null,
      null
    ],
    [
      "IT.SC.STUDYID",
      1,
      "__PLACEHOLDER__",
      "__PLACEHOLDER__",
      null,
      null,
      null
    ],
    [
      "IT.SC.DOMAIN",
      1,
      "__PLACEHOLDER__",
      "__PLACEHOLDER__",
      null,
      null,
      null
    ],
    [
      "IT.SC.USUBJID",
      1,
      "__PLACEHOLDER__",
      "__PLACEHOLDER__",
      null,
      null,
      null
    ],
    [
      "IT.SC.SCSEQ",
      1,
      "__PLACEHOLDER__",
      "__PLACEHOLDER__",
      null,
      null,
      null
    ],
    [
      "IT.SC.SCTESTCD",
      1,
      "__PLACEHOLDER__",
      "__PLACEHOLDER__",
      null,
      null,
      null
    ],
    [
      "IT.SC.SCTEST",
      1,
      "__PLACEHOLDER__",
      "__PLACEHOLDER__",
      null,
      null,
      null
    ],
    [
      "IT.SC.SCORRES",
      1,
      "Collected",
      "Investigator",
      null,
      null,
      "LF.acrf"
    ],
    [
      "IT.SC.SCORRESU",
      1,
      "__PLACEHOLDER__",
      "__PLACEHOLDER__",
      null,
      null,
      null
    ],
    [
      "IT.SC.SCSTRESC",
      1,
      "Assigned",
      "Sponsor",
      null,
      null,
      null
    ],
    [
      "IT.SC.SCSTRESN",
      1,
      "Assigned",
      "Sponsor",
      null,
      null,
      null
    ],
    [
      "IT.SC.SCSTRESU",
      1,
      "__PLACEHOLDER__",
      "__PLACEHOLDER__",
      null,
      null,
      null
    ],
    [
      "IT.SC.SCDTC",
      1,
      "__PLACEHOLDER__",
      "__PLACEHOLDER__",
      null,
      null,
      null
    ],
    [
      "IT.SC.SCORRES.EDULEVEL",
      1,
      "Collected",
      "Investigator",
      null,
      null,
      "LF.acrf"
    ],
    [
      "IT.SC.SCORRES.EDUYRNUM",
      1,
      "Collected",
      "Investigator",
      null,
      null,
      "LF.acrf"
    ],
    [
      "IT.MH.STUDYID",
      1,
      "__PLACEHOLDER__",
      "__PLACEHOLDER__",
      null,
      null,
      null
    ],
    [
      "IT.MH.DOMAIN",
      1,
      "__PLACEHOLDER__",
      "__PLACEHOLDER__",
      null,
      null,
      null
    ],
    [
      "IT.MH.USUBJID",
      1,
      "__PLACEHOLDER__",
      "__PLACEHOLDER__",
      null,
      null,
      null
    ],
    [
      "IT.MH.MHSEQ",
      1,
      "__PLACEHOLDER__",
      "__PLACEHOLDER__",
      null,
      null,
      null
    ],
    [
      "IT.MH.MHTERM",
      1,
      "Assigned",
      "Sponsor",
      null,
      null,
      null
    ],
    [
      "IT.MH.MHDECOD",
      1,
      "Assigned",
      "Sponsor",
      null,
      null,
      null
    ],
    [
      "IT.MH.MHPRESP",
      1,
      "Assigned",
      "Sponsor",
      null,
      null,
      null
    ],
    [
      "IT.MH.MHOCCUR",
      1,
      "Collected",
      "Investigator",
      null,
      null,
      "LF.acrf"
    ],
    [
      "IT.MH.MHENRF",
      1,
      "Assigned",
      "Sponsor",
      null,
      null,
      null
    ],
    [
      "IT.MH.MHENRTPT",
      1,
      "Assigned",
      "Sponsor",
      null,
      null,
      null
    ],
    [
      "IT.MH.MHENTPT",
      1,
      "Assigned",
      "Sponsor",
      null,
      null,
      null
    ],
    [
      "IT.SU.STUDYID",
      1,
      "__PLACEHOLDER__",
      "__PLACEHOLDER__",
      null,
      null,
      null
    ],
    [
      "IT.SU.DOMAIN",
      1,
      "__PLACEHOLDER__",
      "__PLACEHOLDER__",
      null,
      null,
      null
    ],
    [
      "IT.SU.USUBJID",
      1,
      "__PLACEHOLDER__",
      "__PLACEHOLDER__",
      null,
      null,
      null
    ],
    [
      "IT.SU.SUSEQ",
      1,
      "__PLACEHOLDER__",
      "__PLACEHOLDER__",
      null,
      null,
      null
    ],
    [
      "IT.SU.SUTRT",
      1,
      "Collected",
      "Investigator",
      null,
      null,
      "LF.acrf"
    ],
    [
      "IT.SU.SUCAT",
      1,
      "Assigned",
      "Sponsor",
      null,
      null,
      null
    ],
    [
      "IT.SU.SUSCAT",
      1,
      "Assigned",
      "Sponsor",
      null,
      null,
      null
    ],
    [
      "IT.SU.SUPRESP",
      1,
      "Assigned",
      "Sponsor",
      null,
      null,
      null
    ],
    [
      "IT.SU.SUOCCUR",
      1,
      "Collected",
      "Investigator",
      null,
      null,
      "LF.acrf"
    ],
    [
      "IT.SU.SUDOSE",
      1,
      "Collected",
      "Investigator",
      null,
      null,
      "LF.acrf"
    ],
    [
      "IT.SU.SUDOSTXT",
      1,
      "Collected",
      "Investigator",
      null,
      null,
      "LF.acrf"
    ],
    [
      "IT.SU.SUDOSU",
      1,
      "Collected",
      "Investigator",
      null,
      null,
      "LF.acrf"
    ],
    [
      "IT.SU.SUDOSFRQ",
      1,
      "Collected",
      "Investigator",
      null,
      null,
      "LF.acrf"
    ],
    [
      "IT.SU.SUSTDTC",
      1,
      "Collected",
      "Investigator",
      null,
      null,
      "LF.acrf"
    ],
    [
      "IT.SU.SUENDTC",
      1,
      "Collected",
      "Investigator",
      null,
      null,
      "LF.acrf"
    ],
    [
      "IT.SU.SUDUR",
      1,
      "Collected",
      "Investigator",
      null,
      null,
      "LF.acrf"
    ],
    [
      "IT.SU.SUSTRF",
      1,
      "Assigned",
      "Sponsor",
      null,
      null,
      null
    ],
    [
      "IT.SU.SUENRF",
      1,
      "Assigned",
      "Sponsor",
      null,
      null,
      null
    ],
    [
      "IT.SU.SUSTRTPT",
      1,
      "Assigned",
      "Sponsor",
      null,
      null,
      null
    ],
    [
      "IT.SU.SUSTTPT",
      1,
      "Assigned",
      "Sponsor",
      null,
      null,
      null
    ],
    [
      "IT.SU.SUENRTPT",
      1,
      "Assigned",
      "Sponsor",
      null,
      null,
      null
    ],
    [
      "IT.SU.SUENTPT",
      1,
      "Assigned",
      "Sponsor",
      null,
      null,
      null
    ],
    [
      "IT.PR.STUDYID",
      1,
      "__PLACEHOLDER__",
      "__PLACEHOLDER__",
      null,
      null,
      null
    ],
    [
      "IT.PR.DOMAIN",
      1,
      "__PLACEHOLDER__",
      "__PLACEHOLDER__",
      null,
      null,
      null
    ],
    [
      "IT.PR.USUBJID",
      1,
      "__PLACEHOLDER__",
      "__PLACEHOLDER__",
      null,
      null,
      null
    ],
    [
      "IT.PR.PRSEQ",
      1,
      "__PLACEHOLDER__",
      "__PLACEHOLDER__",
      null,
      null,
      null
    ],
    [
      "IT.PR.PRTRT",
      1,
      "Collected",
      "Investigator",
      null,
      null,
      "LF.acrf"
    ],
    [
      "IT.PR.PRDECOD",
      1,
      "Assigned",
      "Sponsor",
      null,
      null,
      null
    ],
    [
      "IT.PR.PRCAT",
      1,
      "Assigned",
      "Sponsor",
      null,
      null,
      null
    ],
    [
      "IT.PR.PRSCAT",
      1,
      "Assigned",
      "Sponsor",
      null,
      null,
      null
    ],
    [
      "IT.PR.PRPRESP",
      1,
      "Assigned",
      "Sponsor",
      null,
      null,
      null
    ],
    [
      "IT.PR.PROCCUR",
      1,
      "Collected",
      "Investigator",
      null,
      null,
      "LF.acrf"
    ],
    [
      "IT.PR.PRLOC",
      1,
      "Collected",
      "Investigator",
      null,
      null,
      "LF.acrf"
    ],
    [
      "IT.PR.PRSTDTC",
      1,
      "Collected",
      "Investigator",
      null,
      null,
      "LF.acrf"
    ],
    [
      "IT.PR.PRENDTC",
      1,
      "Collected",
      "Investigator",
      null,
      null,
      "LF.acrf"
    ],
    [
      "IT.VS.STUDYID",
      1,
      "__PLACEHOLDER__",
      "__PLACEHOLDER__",
      null,
      null,
      null
    ],
    [
      "IT.VS.DOMAIN",
      1,
      "__PLACEHOLDER__",
      "__PLACEHOLDER__",
      null,
      null,
      null
    ],
    [
      "IT.VS.USUBJID",
      1,
      "__PLACEHOLDER__",
      "__PLACEHOLDER__",
      null,
      null,
      null
    ],
    [
      "IT.VS.VSSEQ",
      1,
      "__PLACEHOLDER__",
      "__PLACEHOLDER__",
      null,
      null,
      null
    ],
    [
      "IT.VS.VSTESTCD",
      1,
      "__PLACEHOLDER__",
      "__PLACEHOLDER__",
      null,
      null,
      null
    ],
    [
      "IT.VS.VSTEST",
      1,
      "__PLACEHOLDER__",
      "__PLACEHOLDER__",
      null,
      null,
      null
    ],
    [
      "IT.VS.VSPOS",
      1,
      "__PLACEHOLDER__",
      "__PLACEHOLDER__",
      null,
      null,
      null
    ],
    [
      "IT.VS.VSORRES",
      1,
      "Collected",
      "Investigator",
      null,
      null,
      "LF.acrf"
    ],
    [
      "IT.VS.VSORRESU",
      1,
      "__PLACEHOLDER__",
      "__PLACEHOLDER__",
      null,
      null,
      null
    ],
    [
      "IT.VS.VSSTRESC",
      1,
      "__PLACEHOLDER__",
      "__PLACEHOLDER__",
      null,
      null,
      null
    ],
    [
      "IT.VS.VSSTRESN",
      1,
      "__PLACEHOLDER__",
      "__PLACEHOLDER__",
      null,
      null,
      null
    ],
    [
      "IT.VS.VSSTRESU",
      1,
      "__PLACEHOLDER__",
      "__PLACEHOLDER__",
      null,
      null,
      null
    ],
    [
      "IT.VS.VSLOC",
      1,
      "__PLACEHOLDER__",
      "__PLACEHOLDER__",
      null,
      null,
      null
    ],
    [
      "IT.VS.VSLAT",
      1,
      "__PLACEHOLDER__",
      "__PLACEHOLDER__",
      null,
      null,
      null
    ],
    [
      "IT.VS.VSLOBXFL",
      1,
      "__PLACEHOLDER__",
      "__PLACEHOLDER__",
      null,
      null,
      null
    ],
    [
      "IT.VS.VISITNUM",
      1,
      "__PLACEHOLDER__",
      "__PLACEHOLDER__",
      null,
      null,
      null
    ],
    [
      "IT.VS.VSDTC",
      1,
      "__PLACEHOLDER__",
      "__PLACEHOLDER__",
      null,
      null,
      null
    ],
    [
      "IT.VS.VSORRES.TEMP",
      1,
      "Collected",
      "Investigator",
      null,
      null,
      "LF.acrf"
    ],
    [
      "IT.VS.VSORRES.WEIGHT",
      1,
      "Collected",
      "Investigator",
      null,
      null,
      "LF.acrf"
    ],
    [
      "IT.VS.VSORRES.HEIGHT",
      1,
      "Collected",
      "Investigator",
      null,
      null,
      "LF.acrf"
    ],
    [
      "IT.VS.VSORRES.PULSE",
      1,
      "Collected",
      "Investigator",
      null,
      null,
      "LF.acrf"
    ],
    [
      "IT.VS.VSORRES.RESP",
      1,
      "Collected",
      "Investigator",
      null,
      null,
      "LF.acrf"
    ],
    [
      "IT.VS.VSORRES.BMI",
      1,
      "Derived",
      "Sponsor",
      null,
      null,
      null
    ],
    [
      "IT.VS.VSORRES.SYSBP",
      1,
      "Collected",
      "Investigator",
      null,
      null,
      "LF.acrf"
    ],
    [
      "IT.VS.VSORRES.DIABP",
      1,
      "Collected",
      "Investigator",
      null,
      null,
      "LF.acrf"
    ],
    [
      "IT.VS.VSORRES.HR",
      1,
      "Collected",
      "Investigator",
      null,
      null,
      "LF.acrf"
    ],
    [
      "IT.EG.STUDYID",
      1,
      "__PLACEHOLDER__",
      "__PLACEHOLDER__",
      null,
      null,
      null
    ],
    [
      "IT.EG.DOMAIN",
      1,
      "__PLACEHOLDER__",
      "__PLACEHOLDER__",
      null,
      null,
      null
    ],
    [
      "IT.EG.USUBJID",
      1,
      "__PLACEHOLDER__",
      "__PLACEHOLDER__",
      null,
      null,
      null
    ],
    [
      "IT.EG.EGSEQ",
      1,
      "__PLACEHOLDER__",
      "__PLACEHOLDER__",
      null,
      null,
      null
    ],
    [
      "IT.EG.EGTESTCD",
      1,
      "__PLACEHOLDER__",
      "__PLACEHOLDER__",
      null,
      null,
      null
    ],
    [
      "IT.EG.EGTEST",
      1,
      "__PLACEHOLDER__",
      "__PLACEHOLDER__",
      null,
      null,
      null
    ],
    [
      "IT.EG.EGCAT",
      1,
      "__PLACEHOLDER__",
      "__PLACEHOLDER__",
      null,
      null,
      null
    ],
    [
      "IT.EG.EGPOS",
      1,
      "__PLACEHOLDER__",
      "__PLACEHOLDER__",
      null,
      null,
      null
    ],
    [
      "IT.EG.EGORRES",
      1,
      "__PLACEHOLDER__",
      "__PLACEHOLDER__",
      null,
      null,
      null
    ],
    [
      "IT.EG.EGORRESU",
      1,
      "__PLACEHOLDER__",
      "__PLACEHOLDER__",
      null,
      null,
      null
    ],
    [
      "IT.EG.EGSTRESC",
      1,
      "__PLACEHOLDER__",
      "__PLACEHOLDER__",
      null,
      null,
      null
    ],
    [
      "IT.EG.EGSTRESN",
      1,
      "__PLACEHOLDER__",
      "__PLACEHOLDER__",
      null,
      null,
      null
    ],
    [
      "IT.EG.EGSTRESU",
      1,
      "__PLACEHOLDER__",
      "__PLACEHOLDER__",
      null,
      null,
      null
    ],
    [
      "IT.EG.EGMETHOD",
      1,
      "__PLACEHOLDER__",
      "__PLACEHOLDER__",
      null,
      null,
      null
    ],
    [
      "IT.EG.EGLOBXFL",
      1,
      "__PLACEHOLDER__",
      "__PLACEHOLDER__",
      null,
      null,
      null
    ],
    [
      "IT.EG.EGEVAL",
      1,
      "__PLACEHOLDER__",
      "__PLACEHOLDER__",
      null,
      null,
      null
    ],
    [
      "IT.EG.EGCLSIG",
      1,
      "__PLACEHOLDER__",
      "__PLACEHOLDER__",
      null,
      null,
      null
    ],
    [
      "IT.EG.VISITNUM",
      1,
      "__PLACEHOLDER__",
      "__PLACEHOLDER__",
      null,
      null,
      null
    ],
    [
      "IT.EG.EGDTC",
      1,
      "__PLACEHOLDER__",
      "__PLACEHOLDER__",
      null,
      null,
      null
    ],
    [
      "IT.CM.STUDYID",
      1,
      "__PLACEHOLDER__",
      "__PLACEHOLDER__",
      null,
      null,
      null
    ],
    [
      "IT.CM.DOMAIN",
      1,
      "__PLACEHOLDER__",
      "__PLACEHOLDER__",
      null,
      null,
      null
    ],
    [
      "IT.CM.USUBJID",
      1,
      "__PLACEHOLDER__",
      "__PLACEHOLDER__",
      null,
      null,
      null
    ],
    [
      "IT.CM.CMSEQ",
      1,
      "__PLACEHOLDER__",
      "__PLACEHOLDER__",
      null,
      null,
      null
    ],
    [
      "IT.CM.CMTRT",
      1,
      "Collected",
      "Investigator",
      null,
      null,
      "LF.acrf"
    ],
    [
      "IT.CM.CMDECOD",
      1,
      "Assigned",
      "Sponsor",
      null,
      null,
      null
    ],
    [
      "IT.CM.CMCAT",
      1,
      "Assigned",
      "Sponsor",
      null,
      null,
      null
    ],
    [
      "IT.CM.CMSCAT",
      1,
      "Assigned",
      "Sponsor",
      null,
      null,
      null
    ],
    [
      "IT.CM.CMPRESP",
      1,
      "Assigned",
      "Sponsor",
      null,
      null,
      null
    ],
    [
      "IT.CM.CMOCCUR",
      1,
      "Collected",
      "Investigator",
      null,
      null,
      "LF.acrf"
    ],
    [
      "IT.CM.CMINDC",
      1,
      "Collected",
      "Investigator",
      null,
      null,
      "LF.acrf"
    ],
    [
      "IT.CM.CMDOSE",
      1,
      "Collected",
      "Investigator",
      null,
      null,
      "LF.acrf"
    ],
    [
      "IT.CM.CMDOSU",
      1,
      "Collected",
      "Investigator",
      null,
      null,
      "LF.acrf"
    ],
    [
      "IT.CM.CMDOSFRM",
      1,
      "Collected",
      "Investigator",
      null,
      null,
      "LF.acrf"
    ],
    [
      "IT.CM.CMROUTE",
      1,
      "Collected",
      "Investigator",
      null,
      null,
      "LF.acrf"
    ],
    [
      "IT.CM.CMSTDTC",
      1,
      "Collected",
      "Investigator",
      null,
      null,
      "LF.acrf"
    ],
    [
      "IT.CM.CMENDTC",
      1,
      "Collected",
      "Investigator",
      null,
      null,
      "LF.acrf"
    ],
    [
      "IT.LB.STUDYID",
      1,
      "__PLACEHOLDER__",
      "__PLACEHOLDER__",
      null,
      null,
      null
    ],
    [
      "IT.LB.DOMAIN",
      1,
      "__PLACEHOLDER__",
      "__PLACEHOLDER__",
      null,
      null,
      null
    ],
    [
      "IT.LB.USUBJID",
      1,
      "__PLACEHOLDER__",
      "__PLACEHOLDER__",
      null,
      null,
      null
    ],
    [
      "IT.LB.LBSEQ",
      1,
      "__PLACEHOLDER__",
      "__PLACEHOLDER__",
      null,
      null,
      null
    ],
    [
      "IT.LB.LBTESTCD",
      1,
      "__PLACEHOLDER__",
      "__PLACEHOLDER__",
      null,
      null,
      null
    ],
    [
      "IT.LB.LBTEST",
      1,
      "__PLACEHOLDER__",
      "__PLACEHOLDER__",
      null,
      null,
      null
    ],
    [
      "IT.LB.LBCAT",
      1,
      "__PLACEHOLDER__",
      "__PLACEHOLDER__",
      null,
      null,
      null
    ],
    [
      "IT.LB.LBORRES",
      1,
      "Collected",
      "Vendor",
      null,
      null,
      null
    ],
    [
      "IT.LB.LBORRESU",
      1,
      "__PLACEHOLDER__",
      "__PLACEHOLDER__",
      null,
      null,
      null
    ],
    [
      "IT.LB.LBORNRLO",
      1,
      "__PLACEHOLDER__",
      "__PLACEHOLDER__",
      null,
      null,
      null
    ],
    [
      "IT.LB.LBORNRHI",
      1,
      "__PLACEHOLDER__",
      "__PLACEHOLDER__",
      null,
      null,
      null
    ],
    [
      "IT.LB.LBSTRESC",
      1,
      "Collected",
      "Vendor",
      null,
      null,
      null
    ],
    [
      "IT.LB.LBSTRESN",
      1,
      "Collected",
      "Vendor",
      null,
      null,
      null
    ],
    [
      "IT.LB.LBSTRESU",
      1,
      "__PLACEHOLDER__",
      "__PLACEHOLDER__",
      null,
      null,
      null
    ],
    [
      "IT.LB.LBSTNRLO",
      1,
      "__PLACEHOLDER__",
      "__PLACEHOLDER__",
      null,
      null,
      null
    ],
    [
      "IT.LB.LBSTNRHI",
      1,
      "__PLACEHOLDER__",
      "__PLACEHOLDER__",
      null,
      null,
      null
    ],
    [
      "IT.LB.LBNRIND",
      1,
      "__PLACEHOLDER__",
      "__PLACEHOLDER__",
      null,
      null,
      null
    ],
    [
      "IT.LB.LBSPEC",
      1,
      "__PLACEHOLDER__",
      "__PLACEHOLDER__",
      null,
      null,
      null
    ],
    [
      "IT.LB.LBMETHOD",
      1,
      "__PLACEHOLDER__",
      "__PLACEHOLDER__",
      null,
      null,
      null
    ],
    [
      "IT.LB.LBLOBXFL",
      1,
      "__PLACEHOLDER__",
      "__PLACEHOLDER__",
      null,
      null,
      null
    ],
    [
      "IT.LB.LBFAST",
      1,
      "__PLACEHOLDER__",
      "__PLACEHOLDER__",
      null,
      null,
      null
    ],
    [
      "IT.LB.VISITNUM",
      1,
      "__PLACEHOLDER__",
      "__PLACEHOLDER__",
      null,
      null,
      null
    ],
    [
      "IT.LB.LBDTC",
      1,
      "__PLACEHOLDER__",
      "__PLACEHOLDER__",
      null,
      null,
      null
    ],
    [
      "IT.LB.LBORRES.HGB",
      1,
      "Collected",
      "Vendor",
      null,
      null,
      null
    ],
    [
      "IT.LB.LBORRES.HCT",
      1,
      "Collected",
      "Vendor",
      null,
      null,
      null
    ],
    [
      "IT.LB.LBORRES.RBC",
      1,
      "Collected",
      "Vendor",
      null,
      null,
      null
    ],
    [
      "IT.LB.LBORRES.MCH",
      1,
      "Collected",
      "Vendor",
      null,
      null,
      null
    ],
    [
      "IT.LB.LBORRES.MCHC",
      1,
      "Collected",
      "Vendor",
      null,
      null,
      null
    ],
    [
      "IT.LB.LBORRES.MCV",
      1,
      "Collected",
      "Vendor",
      null,
      null,
      null
    ],
    [
      "IT.LB.LBORRES.WBC",
      1,
      "Collected",
      "Vendor",
      null,
      null,
      null
    ],
    [
      "IT.LB.LBORRES.NEUTSG",
      1,
      "Collected",
      "Vendor",
      null,
      null,
      null
    ],
    [
      "IT.LB.LBORRES.NEUTB",
      1,
      "Collected",
      "Vendor",
      null,
      null,
      null
    ],
    [
      "IT.LB.LBORRES.NEUT",
      1,
      "Collected",
      "Vendor",
      null,
      null,
      null
    ],
    [
      "IT.LB.LBORRES.MONO",
      1,
      "Collected",
      "Vendor",
      null,
      null,
      null
    ],
    [
      "IT.LB.LBORRES.EOS",
      1,
      "Collected",
      "Vendor",
      null,
      null,
      null
    ],
    [
      "IT.LB.LBORRES.BASO",
      1,
      "Collected",
      "Vendor",
      null,
      null,
      null
    ],
    [
      "IT.LB.LBORRES.PLAT",
      1,
      "Collected",
      "Vendor",
      null,
      null,
      null
    ],
    [
      "IT.LB.LBORRES.MICROCY",
      1,
      "Collected",
      "Vendor",
      null,
      null,
      null
    ],
    [
      "IT.LB.LBORRES.MACROCY",
      1,
      "Collected",
      "Vendor",
      null,
      null,
      null
    ],
    [
      "IT.LB.LBORRES.ANISO",
      1,
      "Collected",
      "Vendor",
      null,
      null,
      null
    ],
    [
      "IT.LB.LBORRES.POIKILO",
      1,
      "Collected",
      "Vendor",
      null,
      null,
      null
    ],
    [
      "IT.LB.LBORRES.POLYCHR",
      1,
      "Collected",
      "Vendor",
      null,
      null,
      null
    ],
    [
      "IT.LB.LBORRES.ALT",
      1,
      "Collected",
      "Vendor",
      null,
      null,
      null
    ],
    [
      "IT.LB.LBORRES.ALB",
      1,
      "Collected",
      "Vendor",
      null,
      null,
      null
    ],
    [
      "IT.LB.LBORRES.ALP",
      1,
      "Collected",
      "Vendor",
      null,
      null,
      null
    ],
    [
      "IT.LB.LBORRES.AST",
      1,
      "Collected",
      "Vendor",
      null,
      null,
      null
    ],
    [
      "IT.LB.LBORRES.CREAT",
      1,
      "Collected",
      "Vendor",
      null,
      null,
      null
    ],
    [
      "IT.LB.LBORRES.K",
      1,
      "Collected",
      "Vendor",
      null,
      null,
      null
    ],
    [
      "IT.LB.LBORRES.SODIUM",
      1,
      "Collected",
      "Vendor",
      null,
      null,
      null
    ],
    [
      "IT.LB.LBORRES.UREAN",
      1,
      "Collected",
      "Vendor",
      null,
      null,
      null
    ],
    [
      "IT.LB.LBORRES.BICARB",
      1,
      "Collected",
      "Vendor",
      null,
      null,
      null
    ],
    [
      "IT.LB.LBORRES.CL",
      1,
      "Collected",
      "Vendor",
      null,
      null,
      null
    ],
    [
      "IT.LB.LBORRES.BILI",
      1,
      "Collected",
      "Vendor",
      null,
      null,
      null
    ],
    [
      "IT.LB.LBORRES.GGT",
      1,
      "Collected",
      "Vendor",
      null,
      null,
      null
    ],
    [
      "IT.LB.LBORRES.URATE",
      1,
      "Collected",
      "Vendor",
      null,
      null,
      null
    ],
    [
      "IT.LB.LBORRES.PHOS",
      1,
      "Collected",
      "Vendor",
      null,
      null,
      null
    ],
    [
      "IT.LB.LBORRES.CA",
      1,
      "Collected",
      "Vendor",
      null,
      null,
      null
    ],
    [
      "IT.LB.LBORRES.PROT",
      1,
      "Collected",
      "Vendor",
      null,
      null,
      null
    ],
    [
      "IT.LB.LBORRES.CHOL",
      1,
      "Collected",
      "Vendor",
      null,
      null,
      null
    ],
    [
      "IT.LB.LBORRES.T3UP",
      1,
      "Collected",
      "Vendor",
      null,
      null,
      null
    ],
    [
      "IT.LB.LBORRES.T3",
      1,
      "Collected",
      "Vendor",
      null,
      null,
      null
    ],
    [
      "IT.LB.LBORRES.T4FR",
      1,
      "Collected",
      "Vendor",
      null,
      null,
      null
    ],
    [
      "IT.LB.LBORRES.T4FRIDX",
      1,
      "Collected",
      "Vendor",
      null,
      null,
      null
    ],
    [
      "IT.LB.LBORRES.TSH",
      1,
      "Collected",
      "Vendor",
      null,
      null,
      null
    ],
    [
      "IT.LB.LBORRES.VITB9",
      1,
      "Collected",
      "Vendor",
      null,
      null,
      null
    ],
    [
      "IT.LB.LBORRES.VITB12",
      1,
      "Collected",
      "Vendor",
      null,
      null,
      null
    ],
    [
      "IT.LB.LBORRES.COLOR",
      1,
      "Collected",
      "Vendor",
      null,
      null,
      null
    ],
    [
      "IT.LB.LBORRES.SPGRAV",
      1,
      "Collected",
      "Vendor",
      null,
      null,
      null
    ],
    [
      "IT.LB.LBORRES.KETONES",
      1,
      "Collected",
      "Vendor",
      null,
      null,
      null
    ],
    [
      "IT.LB.LBORRES.UROBIL",
      1,
      "Collected",
      "Vendor",
      null,
      null,
      null
    ],
    [
      "IT.LB.LBORRES.OCCBLD",
      1,
      "Collected",
      "Vendor",
      null,
      null,
      null
    ],
    [
      "IT.LB.LBORRES.NITRITE",
      1,
      "Collected",
      "Vendor",
      null,
      null,
      null
    ],
    [
      "IT.LB.LBORRES.HBA1C",
      1,
      "Collected",
      "Vendor",
      null,
      null,
      null
    ],
    [
      "IT.LB.LBORRES.HBA1CHGB",
      1,
      "Collected",
      "Vendor",
      null,
      null,
      null
    ],
    [
      "IT.MB.STUDYID",
      1,
      "__PLACEHOLDER__",
      "__PLACEHOLDER__",
      null,
      null,
      null
    ],
    [
      "IT.MB.DOMAIN",
      1,
      "__PLACEHOLDER__",
      "__PLACEHOLDER__",
      null,
      null,
      null
    ],
    [
      "IT.MB.USUBJID",
      1,
      "__PLACEHOLDER__",
      "__PLACEHOLDER__",
      null,
      null,
      null
    ],
    [
      "IT.MB.MBSEQ",
      1,
      "__PLACEHOLDER__",
      "__PLACEHOLDER__",
      null,
      null,
      null
    ],
    [
      "IT.MB.MBTESTCD",
      1,
      "__PLACEHOLDER__",
      "__PLACEHOLDER__",
      null,
      null,
      null
    ],
    [
      "IT.MB.MBTEST",
      1,
      "__PLACEHOLDER__",
      "__PLACEHOLDER__",
      null,
      null,
      null
    ],
    [
      "IT.MB.MBTSTDTL",
      1,
      "__PLACEHOLDER__",
      "__PLACEHOLDER__",
      null,
      null,
      null
    ],
    [
      "IT.MB.MBORRES",
      1,
      "__PLACEHOLDER__",
      "__PLACEHOLDER__",
      null,
      null,
      null
    ],
    [
      "IT.MB.MBSTRESC",
      1,
      "__PLACEHOLDER__",
      "__PLACEHOLDER__",
      null,
      null,
      null
    ],
    [
      "IT.MB.MBSPEC",
      1,
      "__PLACEHOLDER__",
      "__PLACEHOLDER__",
      null,
      null,
      null
    ],
    [
      "IT.MB.MBMETHOD",
      1,
      "__PLACEHOLDER__",
      "__PLACEHOLDER__",
      null,
      null,
      null
    ],
    [
      "IT.MB.VISITNUM",
      1,
      "__PLACEHOLDER__",
      "__PLACEHOLDER__",
      null,
      null,
      null
    ],
    [
      "IT.MB.MBDTC",
      1,
      "__PLACEHOLDER__",
      "__PLACEHOLDER__",
      null,
      null,
      null
    ],
    [
      "IT.EC.STUDYID",
      1,
      "__PLACEHOLDER__",
      "__PLACEHOLDER__",
      null,
      null,
      null
    ],
    [
      "IT.EC.DOMAIN",
      1,
      "__PLACEHOLDER__",
      "__PLACEHOLDER__",
      null,
      null,
      null
    ],
    [
      "IT.EC.USUBJID",
      1,
      "__PLACEHOLDER__",
      "__PLACEHOLDER__",
      null,
      null,
      null
    ],
    [
      "IT.EC.ECSEQ",
      1,
      "__PLACEHOLDER__",
      "__PLACEHOLDER__",
      null,
      null,
      null
    ],
    [
      "IT.EC.ECREFID",
      1,
      "Collected",
      "Investigator",
      null,
      null,
      "LF.acrf"
    ],
    [
      "IT.EC.ECTRT",
      1,
      "Collected",
      "Investigator",
      null,
      null,
      "LF.acrf"
    ],
    [
      "IT.EC.ECDOSE",
      1,
      "Collected",
      "Investigator",
      null,
      null,
      "LF.acrf"
    ],
    [
      "IT.EC.ECDOSTXT",
      1,
      "Collected",
      "Investigator",
      null,
      null,
      "LF.acrf"
    ],
    [
      "IT.EC.ECDOSU",
      1,
      "Collected",
      "Investigator",
      null,
      null,
      "LF.acrf"
    ],
    [
      "IT.EC.ECDOSFRM",
      1,
      "Collected",
      "Investigator",
      null,
      null,
      "LF.acrf"
    ],
    [
      "IT.EC.ECDOSFRQ",
      1,
      "Collected",
      "Investigator",
      null,
      null,
      "LF.acrf"
    ],
    [
      "IT.EC.ECDOSRGM",
      1,
      "Collected",
      "Investigator",
      null,
      null,
      "LF.acrf"
    ],
    [
      "IT.EC.ECROUTE",
      1,
      "Collected",
      "Investigator",
      null,
      null,
      "LF.acrf"
    ],
    [
      "IT.EC.ECLOC",
      1,
      "Collected",
      "Investigator",
      null,
      null,
      "LF.acrf"
    ],
    [
      "IT.EC.ECLAT",
      1,
      "Collected",
      "Investigator",
      null,
      null,
      "LF.acrf"
    ],
    [
      "IT.EC.ECDIR",
      1,
      "Collected",
      "Investigator",
      null,
      null,
      "LF.acrf"
    ],
    [
      "IT.EC.ECSTDTC",
      1,
      "__PLACEHOLDER__",
      "__PLACEHOLDER__",
      null,
      null,
      null
    ],
    [
      "IT.EC.ECENDTC",
      1,
      "__PLACEHOLDER__",
      "__PLACEHOLDER__",
      null,
      null,
      null
    ],
    [
      "IT.AE.STUDYID",
      1,
      "__PLACEHOLDER__",
      "__PLACEHOLDER__",
      null,
      null,
      null
    ],
    [
      "IT.AE.DOMAIN",
      1,
      "__PLACEHOLDER__",
      "__PLACEHOLDER__",
      null,
      null,
      null
    ],
    [
      "IT.AE.USUBJID",
      1,
      "__PLACEHOLDER__",
      "__PLACEHOLDER__",
      null,
      null,
      null
    ],
    [
      "IT.AE.AESEQ",
      1,
      "__PLACEHOLDER__",
      "__PLACEHOLDER__",
      null,
      null,
      null
    ],
    [
      "IT.AE.AETERM",
      1,
      "Collected",
      "Investigator",
      null,
      null,
      "LF.acrf"
    ],
    [
      "IT.AE.AELLT",
      1,
      "__PLACEHOLDER__",
      "__PLACEHOLDER__",
      null,
      null,
      null
    ],
    [
      "IT.AE.AELLTCD",
      1,
      "__PLACEHOLDER__",
      "__PLACEHOLDER__",
      null,
      null,
      null
    ],
    [
      "IT.AE.AEDECOD",
      1,
      "Assigned",
      "Sponsor",
      null,
      null,
      null
    ],
    [
      "IT.AE.AEPTCD",
      1,
      "__PLACEHOLDER__",
      "__PLACEHOLDER__",
      null,
      null,
      null
    ],
    [
      "IT.AE.AEHLT",
      1,
      "__PLACEHOLDER__",
      "__PLACEHOLDER__",
      null,
      null,
      null
    ],
    [
      "IT.AE.AEHLTCD",
      1,
      "__PLACEHOLDER__",
      "__PLACEHOLDER__",
      null,
      null,
      null
    ],
    [
      "IT.AE.AEHLGT",
      1,
      "__PLACEHOLDER__",
      "__PLACEHOLDER__",
      null,
      null,
      null
    ],
    [
      "IT.AE.AEHLGTCD",
      1,
      "__PLACEHOLDER__",
      "__PLACEHOLDER__",
      null,
      null,
      null
    ],
    [
      "IT.AE.AECAT",
      1,
      "Assigned",
      "Sponsor",
      null,
      null,
      null
    ],
    [
      "IT.AE.AESCAT",
      1,
      "Assigned",
      "Sponsor",
      null,
      null,
      null
    ],
    [
      "IT.AE.AEPRESP",
      1,
      "Assigned",
      "Sponsor",
      null,
      null,
      null
    ],
    [
      "IT.AE.AEBODSYS",
      1,
      "__PLACEHOLDER__",
      "__PLACEHOLDER__",
      null,
      null,
      null
    ],
    [
      "IT.AE.AEBDSYCD",
      1,
      "__PLACEHOLDER__",
      "__PLACEHOLDER__",
      null,
      null,
      null
    ],
    [
      "IT.AE.AESOC",
      1,
      "__PLACEHOLDER__",
      "__PLACEHOLDER__",
      null,
      null,
      null
    ],
    [
      "IT.AE.AESOCCD",
      1,
      "__PLACEHOLDER__",
      "__PLACEHOLDER__",
      null,
      null,
      null
    ],
    [
      "IT.AE.AELOC",
      1,
      "Collected",
      "Investigator",
      null,
      null,
      "LF.acrf"
    ],
    [
      "IT.AE.AESEV",
      1,
      "Collected",
      "Investigator",
      null,
      null,
      "LF.acrf"
    ],
    [
      "IT.AE.AESER",
      1,
      "Collected",
      "Investigator",
      null,
      null,
      "LF.acrf"
    ],
    [
      "IT.AE.AEACN",
      1,
      "Collected",
      "Investigator",
      null,
      null,
      "LF.acrf"
    ],
    [
      "IT.AE.AEACNOTH",
      1,
      "Collected",
      "Investigator",
      null,
      null,
      "LF.acrf"
    ],
    [
      "IT.AE.AEREL",
      1,
      "Collected",
      "Investigator",
      null,
      null,
      "LF.acrf"
    ],
    [
      "IT.AE.AERELNST",
      1,
      "Collected",
      "Investigator",
      null,
      null,
      "LF.acrf"
    ],
    [
      "IT.AE.AEPATT",
      1,
      "Collected",
      "Investigator",
      null,
      null,
      "LF.acrf"
    ],
    [
      "IT.AE.AEOUT",
      1,
      "Collected",
      "Investigator",
      null,
      null,
      "LF.acrf"
    ],
    [
      "IT.AE.AESCAN",
      1,
      "Collected",
      "Investigator",
      null,
      null,
      "LF.acrf"
    ],
    [
      "IT.AE.AESCONG",
      1,
      "Collected",
      "Investigator",
      null,
      null,
      "LF.acrf"
    ],
    [
      "IT.AE.AESDISAB",
      1,
      "Collected",
      "Investigator",
      null,
      null,
      "LF.acrf"
    ],
    [
      "IT.AE.AESDTH",
      1,
      "Collected",
      "Investigator",
      null,
      null,
      "LF.acrf"
    ],
    [
      "IT.AE.AESHOSP",
      1,
      "Collected",
      "Investigator",
      null,
      null,
      "LF.acrf"
    ],
    [
      "IT.AE.AESLIFE",
      1,
      "Collected",
      "Investigator",
      null,
      null,
      "LF.acrf"
    ],
    [
      "IT.AE.AESOD",
      1,
      "Collected",
      "Investigator",
      null,
      null,
      "LF.acrf"
    ],
    [
      "IT.AE.AESMIE",
      1,
      "Collected",
      "Investigator",
      null,
      null,
      "LF.acrf"
    ],
    [
      "IT.AE.AECONTRT",
      1,
      "Collected",
      "Investigator",
      null,
      null,
      "LF.acrf"
    ],
    [
      "IT.AE.AETOXGR",
      1,
      "Collected",
      "Investigator",
      null,
      null,
      "LF.acrf"
    ],
    [
      "IT.AE.AESTDTC",
      1,
      "Collected",
      "Investigator",
      null,
      null,
      "LF.acrf"
    ],
    [
      "IT.AE.AEENDTC",
      1,
      "Collected",
      "Investigator",
      null,
      null,
      "LF.acrf"
    ],
    [
      "IT.AE.AEENRF",
      1,
      "Assigned",
      "Sponsor",
      null,
      null,
      null
    ],
    [
      "IT.AE.AEENRTPT",
      1,
      "Assigned",
      "Sponsor",
      null,
      null,
      null
    ],
    [
      "IT.AE.AEENTPT",
      1,
      "Assigned",
      "Sponsor",
      null,
      null,
      null
    ],
    [
      "IT.TS.STUDYID",
      1,
      "__PLACEHOLDER__",
      "__PLACEHOLDER__",
      null,
      null,
      null
    ],
    [
      "IT.TS.DOMAIN",
      1,
      "__PLACEHOLDER__",
      "__PLACEHOLDER__",
      null,
      null,
      null
    ],
    [
      "IT.TS.TSSEQ",
      1,
      "__PLACEHOLDER__",
      "__PLACEHOLDER__",
      null,
      null,
      null
    ],
    [
      "IT.TS.TSPARMCD",
      1,
      "__PLACEHOLDER__",
      "__PLACEHOLDER__",
      null,
      null,
      null
    ],
    [
      "IT.TS.TSPARM",
      1,
      "__PLACEHOLDER__",
      "__PLACEHOLDER__",
      null,
      null,
      null
    ],
    [
      "IT.TS.TSVAL",
      1,
      "__PLACEHOLDER__",
      "__PLACEHOLDER__",
      null,
      null,
      null
    ],
    [
      "IT.TS.TSVALCD",
      1,
      "__PLACEHOLDER__",
      "__PLACEHOLDER__",
      null,
      null,
      null
    ],
    [
      "IT.TS.TSVCDREF",
      1,
      "__PLACEHOLDER__",
      "__PLACEHOLDER__",
      null,
      null,
      null
    ],
    [
      "IT.TS.TSVCDVER",
      1,
      "__PLACEHOLDER__",
      "__PLACEHOLDER__",
      null,
      null,
      null
    ],
    [
      "IT.TS.TSPARMCD.ADAPT",
      1,
      "Protocol",
      "Sponsor",
      null,
      null,
      null
    ],
    [
      "IT.TS.TSPARMCD.AGEMIN",
      1,
      "Protocol",
      "Sponsor",
      null,
      null,
      null
    ],
    [
      "IT.TS.TSPARMCD.AGEMAX",
      1,
      "Protocol",
      "Sponsor",
      null,
      null,
      null
    ],
    [
      "IT.TS.TSPARMCD.COMPTRT",
      1,
      "Protocol",
      "Sponsor",
      null,
      null,
      null
    ],
    [
      "IT.TS.TSPARMCD.CRMDUR",
      1,
      "Protocol",
      "Sponsor",
      null,
      null,
      null
    ],
    [
      "IT.TS.TSPARMCD.DOSE",
      1,
      "Protocol",
      "Sponsor",
      null,
      null,
      null
    ],
    [
      "IT.TS.TSPARMCD.DOSFRQ",
      1,
      "Protocol",
      "Sponsor",
      null,
      null,
      null
    ],
    [
      "IT.TS.TSPARMCD.DOSU",
      1,
      "Protocol",
      "Sponsor",
      null,
      null,
      null
    ],
    [
      "IT.TS.TSPARMCD.INDIC",
      1,
      "Protocol",
      "Sponsor",
      null,
      null,
      null
    ],
    [
      "IT.TS.TSPARMCD.INTMODEL",
      1,
      "Protocol",
      "Sponsor",
      null,
      null,
      null
    ],
    [
      "IT.TS.TSPARMCD.INTTYPE",
      1,
      "Protocol",
      "Sponsor",
      null,
      null,
      null
    ],
    [
      "IT.TS.TSPARMCD.NARMS",
      1,
      "Protocol",
      "Sponsor",
      null,
      null,
      null
    ],
    [
      "IT.TS.TSPARMCD.OBJPRIM",
      1,
      "Protocol",
      "Sponsor",
      null,
      null,
      null
    ],
    [
      "IT.TS.TSPARMCD.OBJSEC",
      1,
      "Protocol",
      "Sponsor",
      null,
      null,
      null
    ],
    [
      "IT.TS.TSPARMCD.OUTMSPRI",
      1,
      "Protocol",
      "Sponsor",
      null,
      null,
      null
    ],
    [
      "IT.TS.TSPARMCD.OUTMSSEC",
      1,
      "Protocol",
      "Sponsor",
      null,
      null,
      null
    ],
    [
      "IT.TS.TSPARMCD.PLANSUB",
      1,
      "Protocol",
      "Sponsor",
      null,
      null,
      null
    ],
    [
      "IT.TS.TSPARMCD.PTRTDUR",
      1,
      "Protocol",
      "Sponsor",
      null,
      null,
      null
    ],
    [
      "IT.TS.TSPARMCD.ROUTE",
      1,
      "Protocol",
      "Sponsor",
      null,
      null,
      null
    ],
    [
      "IT.TS.TSPARMCD.SEXPOP",
      1,
      "Protocol",
      "Sponsor",
      null,
      null,
      null
    ],
    [
      "IT.TS.TSPARMCD.SPONSOR",
      1,
      "Protocol",
      "Sponsor",
      null,
      null,
      null
    ],
    [
      "IT.TS.TSPARMCD.STYPE",
      1,
      "Protocol",
      "Sponsor",
      null,
      null,
      null
    ],
    [
      "IT.TS.TSPARMCD.TBLIND",
      1,
      "Protocol",
      "Sponsor",
      null,
      null,
      null
    ],
    [
      "IT.TS.TSPARMCD.THERAREA",
      1,
      "Protocol",
      "Sponsor",
      null,
      null,
      null
    ],
    [
      "IT.TS.TSPARMCD.TINDTP",
      1,
      "Protocol",
      "Sponsor",
      null,
      null,
      null
    ],
    [
      "IT.TS.TSPARMCD.TITLE",
      1,
      "Protocol",
      "Sponsor",
      null,
      null,
      null
    ],
    [
      "IT.TS.TSPARMCD.TPHASE",
      1,
      "Protocol",
      "Sponsor",
      null,
      null,
      null
    ],
    [
      "IT.TS.TSPARMCD.TRT",
      1,
      "Protocol",
      "Sponsor",
      null,
      null,
      null
    ],
    [
      "IT.TS.TSPARMCD.TTYPE",
      1,
      "Protocol",
      "Sponsor",
      null,
      null,
      null
    ],
    [
      "IT.TA.STUDYID",
      1,
      "__PLACEHOLDER__",
      "__PLACEHOLDER__",
      null,
      null,
      null
    ],
    [
      "IT.TA.DOMAIN",
      1,
      "__PLACEHOLDER__",
      "__PLACEHOLDER__",
      null,
      null,
      null
    ],
    [
      "IT.TA.ARMCD",
      1,
      "__PLACEHOLDER__",
      "__PLACEHOLDER__",
      null,
      null,
      null
    ],
    [
      "IT.TA.ARM",
      1,
      "__PLACEHOLDER__",
      "__PLACEHOLDER__",
      null,
      null,
      null
    ],
    [
      "IT.TA.TAETORD",
      1,
      "__PLACEHOLDER__",
      "__PLACEHOLDER__",
      null,
      null,
      null
    ],
    [
      "IT.TA.ETCD",
      1,
      "__PLACEHOLDER__",
      "__PLACEHOLDER__",
      null,
      null,
      null
    ],
    [
      "IT.TA.ELEMENT",
      1,
      "__PLACEHOLDER__",
      "__PLACEHOLDER__",
      null,
      null,
      null
    ],
    [
      "IT.TA.TABRANCH",
      1,
      "__PLACEHOLDER__",
      "__PLACEHOLDER__",
      null,
      null,
      null
    ],
    [
      "IT.TA.TATRANS",
      1,
      "__PLACEHOLDER__",
      "__PLACEHOLDER__",
      null,
      null,
      null
    ],
    [
      "IT.TA.EPOCH",
      1,
      "__PLACEHOLDER__",
      "__PLACEHOLDER__",
      null,
      null,
      null
    ],
    [
      "IT.TE.STUDYID",
      1,
      "__PLACEHOLDER__",
      "__PLACEHOLDER__",
      null,
      null,
      null
    ],
    [
      "IT.TE.DOMAIN",
      1,
      "__PLACEHOLDER__",
      "__PLACEHOLDER__",
      null,
      null,
      null
    ],
    [
      "IT.TE.ETCD",
      1,
      "__PLACEHOLDER__",
      "__PLACEHOLDER__",
      null,
      null,
      null
    ],
    [
      "IT.TE.ELEMENT",
      1,
      "__PLACEHOLDER__",
      "__PLACEHOLDER__",
      null,
      null,
      null
    ],
    [
      "IT.TE.TESTRL",
      1,
      "__PLACEHOLDER__",
      "__PLACEHOLDER__",
      null,
      null,
      null
    ],
    [
      "IT.TI.STUDYID",
      1,
      "__PLACEHOLDER__",
      "__PLACEHOLDER__",
      null,
      null,
      null
    ],
    [
      "IT.TI.DOMAIN",
      1,
      "__PLACEHOLDER__",
      "__PLACEHOLDER__",
      null,
      null,
      null
    ],
    [
      "IT.TI.IETESTCD",
      1,
      "__PLACEHOLDER__",
      "__PLACEHOLDER__",
      null,
      null,
      null
    ],
    [
      "IT.TI.IETEST",
      1,
      "__PLACEHOLDER__",
      "__PLACEHOLDER__",
      null,
      null,
      null
    ],
    [
      "IT.TI.IECAT",
      1,
      "__PLACEHOLDER__",
      "__PLACEHOLDER__",
      null,
      null,
      null
    ],
    [
      "IT.TV.STUDYID",
      1,
      "__PLACEHOLDER__",
      "__PLACEHOLDER__",
      null,
      null,
      null
    ],
    [
      "IT.TV.DOMAIN",
      1,
      "__PLACEHOLDER__",
      "__PLACEHOLDER__",
      null,
      null,
      null
    ],
    [
      "IT.TV.VISITNUM",
      1,
      "__PLACEHOLDER__",
      "__PLACEHOLDER__",
      null,
      null,
      null
    ],
    [
      "IT.TV.VISIT",
      1,
      "__PLACEHOLDER__",
      "__PLACEHOLDER__",
      null,
      null,
      null
    ],
    [
      "IT.TV.VISITDY",
      1,
      "__PLACEHOLDER__",
      "__PLACEHOLDER__",
      null,
      null,
      null
    ],
    [
      "IT.TV.ARMCD",
      1,
      "__PLACEHOLDER__",
      "__PLACEHOLDER__",
      null,
      null,
      null
    ],
    [
      "IT.TV.ARM",
      1,
      "__PLACEHOLDER__",
      "__PLACEHOLDER__",
      null,
      null,
      null
    ],
    [
      "IT.TV.TVSTRL",
      1,
      "__PLACEHOLDER__",
      "__PLACEHOLDER__",
      null,
      null,
      null
    ],
    [
      "IT.TV.TVENRL",
      1,
      "__PLACEHOLDER__",
      "__PLACEHOLDER__",
      null,
      null,
      null
    ],
    [
      "IT.SV.STUDYID",
      1,
      "__PLACEHOLDER__",
      "__PLACEHOLDER__",
      null,
      null,
      null
    ],
    [
      "IT.SV.DOMAIN",
      1,
      "__PLACEHOLDER__",
      "__PLACEHOLDER__",
      null,
      null,
      null
    ],
    [
      "IT.SV.USUBJID",
      1,
      "__PLACEHOLDER__",
      "__PLACEHOLDER__",
      null,
      null,
      null
    ],
    [
      "IT.SV.VISITNUM",
      1,
      "__PLACEHOLDER__",
      "__PLACEHOLDER__",
      null,
      null,
      null
    ],
    [
      "IT.SV.VISIT",
      1,
      "__PLACEHOLDER__",
      "__PLACEHOLDER__",
      null,
      null,
      null
    ],
    [
      "IT.SV.SVPRESP",
      1,
      "__PLACEHOLDER__",
      "__PLACEHOLDER__",
      null,
      null,
      null
    ],
    [
      "IT.SV.SVOCCUR",
      1,
      "__PLACEHOLDER__",
      "__PLACEHOLDER__",
      null,
      null,
      null
    ],
    [
      "IT.SV.SVCNTMOD",
      1,
      "__PLACEHOLDER__",
      "__PLACEHOLDER__",
      null,
      null,
      null
    ],
    [
      "IT.SV.SVSTDTC",
      1,
      "__PLACEHOLDER__",
      "__PLACEHOLDER__",
      null,
      null,
      null
    ],
    [
      "IT.SV.SVENDTC",
      1,
      "__PLACEHOLDER__",
      "__PLACEHOLDER__",
      null,
      null,
      null
    ],
    [
      "IT.IE.STUDYID",
      1,
      "__PLACEHOLDER__",
      "__PLACEHOLDER__",
      null,
      null,
      null
    ],
    [
      "IT.IE.DOMAIN",
      1,
      "__PLACEHOLDER__",
      "__PLACEHOLDER__",
      null,
      null,
      null
    ],
    [
      "IT.IE.USUBJID",
      1,
      "__PLACEHOLDER__",
      "__PLACEHOLDER__",
      null,
      null,
      null
    ],
    [
      "IT.IE.IESEQ",
      1,
      "__PLACEHOLDER__",
      "__PLACEHOLDER__",
      null,
      null,
      null
    ],
    [
      "IT.IE.IETESTCD",
      1,
      "__PLACEHOLDER__",
      "__PLACEHOLDER__",
      null,
      null,
      null
    ],
    [
      "IT.IE.IETEST",
      1,
      "__PLACEHOLDER__",
      "__PLACEHOLDER__",
      null,
      null,
      null
    ],
    [
      "IT.IE.IECAT",
      1,
      "__PLACEHOLDER__",
      "__PLACEHOLDER__",
      null,
      null,
      null
    ],
    [
      "IT.IE.IEORRES",
      1,
      "__PLACEHOLDER__",
      "__PLACEHOLDER__",
      null,
      null,
      null
    ],
    [
      "IT.IE.IESTRESC",
      1,
      "__PLACEHOLDER__",
      "__PLACEHOLDER__",
      null,
      null,
      null
    ],
    [
      "IT.IE.IEORRES.IN01",
      1,
      "Collected",
      "Investigator",
      null,
      null,
      "LF.acrf"
    ],
    [
      "IT.IE.IEORRES.IN02",
      1,
      "Collected",
      "Investigator",
      null,
      null,
      "LF.acrf"
    ],
    [
      "IT.IE.IEORRES.IN03",
      1,
      "Collected",
      "Investigator",
      null,
      null,
      "LF.acrf"
    ],
    [
      "IT.IE.IEORRES.IN04",
      1,
      "Collected",
      "Investigator",
      null,
      null,
      "LF.acrf"
    ],
    [
      "IT.IE.IEORRES.IN05",
      1,
      "Collected",
      "Investigator",
      null,
      null,
      "LF.acrf"
    ],
    [
      "IT.IE.IEORRES.IN06",
      1,
      "Collected",
      "Investigator",
      null,
      null,
      "LF.acrf"
    ],
    [
      "IT.IE.IEORRES.IN07",
      1,
      "Collected",
      "Investigator",
      null,
      null,
      "LF.acrf"
    ],
    [
      "IT.IE.IEORRES.IN08",
      1,
      "Collected",
      "Investigator",
      null,
      null,
      "LF.acrf"
    ],
    [
      "IT.IE.IEORRES.EX01",
      1,
      "Collected",
      "Investigator",
      null,
      null,
      "LF.acrf"
    ],
    [
      "IT.IE.IEORRES.EX02",
      1,
      "Collected",
      "Investigator",
      null,
      null,
      "LF.acrf"
    ],
    [
      "IT.IE.IEORRES.EX03",
      1,
      "Collected",
      "Investigator",
      null,
      null,
      "LF.acrf"
    ],
    [
      "IT.IE.IEORRES.EX04",
      1,
      "Collected",
      "Investigator",
      null,
      null,
      "LF.acrf"
    ],
    [
      "IT.IE.IEORRES.EX05",
      1,
      "Collected",
      "Investigator",
      null,
      null,
      "LF.acrf"
    ],
    [
      "IT.IE.IEORRES.EX06",
      1,
      "Collected",
      "Investigator",
      null,
      null,
      "LF.acrf"
    ],
    [
      "IT.IE.IEORRES.EX07",
      1,
      "Collected",
      "Investigator",
      null,
      null,
      "LF.acrf"
    ],
    [
      "IT.IE.IEORRES.EX08",
      1,
      "Collected",
      "Investigator",
      null,
      null,
      "LF.acrf"
    ],
    [
      "IT.IE.IEORRES.EX09",
      1,
      "Collected",
      "Investigator",
      null,
      null,
      "LF.acrf"
    ],
    [
      "IT.IE.IEORRES.EX10",
      1,
      "Collected",
      "Investigator",
      null,
      null,
      "LF.acrf"
    ],
    [
      "IT.IE.IEORRES.EX11",
      1,
      "Collected",
      "Investigator",
      null,
      null,
      "LF.acrf"
    ],
    [
      "IT.IE.IEORRES.EX12",
      1,
      "Collected",
      "Investigator",
      null,
      null,
      "LF.acrf"
    ],
    [
      "IT.IE.IEORRES.EX13",
      1,
      "Collected",
      "Investigator",
      null,
      null,
      "LF.acrf"
    ],
    [
      "IT.IE.IEORRES.EX14",
      1,
      "Collected",
      "Investigator",
      null,
      null,
      "LF.acrf"
    ],
    [
      "IT.IE.IEORRES.EX15",
      1,
      "Collected",
      "Investigator",
      null,
      null,
      "LF.acrf"
    ],
    [
      "IT.IE.IEORRES.EX16",
      1,
      "Collected",
      "Investigator",
      null,
      null,
      "LF.acrf"
    ],
    [
      "IT.IE.IEORRES.EX17",
      1,
      "Collected",
      "Investigator",
      null,
      null,
      "LF.acrf"
    ],
    [
      "IT.IE.IEORRES.EX18",
      1,
      "Collected",
      "Investigator",
      null,
      null,
      "LF.acrf"
    ],
    [
      "IT.IE.IEORRES.EX19",
      1,
      "Collected",
      "Investigator",
      null,
      null,
      "LF.acrf"
    ],
    [
      "IT.IE.IEORRES.EX20",
      1,
      "Collected",
      "Investigator",
      null,
      null,
      "LF.acrf"
    ],
    [
      "IT.IE.IEORRES.EX21",
      1,
      "Collected",
      "Investigator",
      null,
      null,
      "LF.acrf"
    ],
    [
      "IT.IE.IEORRES.EX22",
      1,
      "Collected",
      "Investigator",
      null,
      null,
      "LF.acrf"
    ],
    [
      "IT.IE.IEORRES.EX23",
      1,
      "Collected",
      "Investigator",
      null,
      null,
      "LF.acrf"
    ],
    [
      "IT.SE.STUDYID",
      1,
      "__PLACEHOLDER__",
      "__PLACEHOLDER__",
      null,
      null,
      null
    ],
    [
      "IT.SE.DOMAIN",
      1,
      "__PLACEHOLDER__",
      "__PLACEHOLDER__",
      null,
      null,
      null
    ],
    [
      "IT.SE.USUBJID",
      1,
      "__PLACEHOLDER__",
      "__PLACEHOLDER__",
      null,
      null,
      null
    ],
    [
      "IT.SE.SESEQ",
      1,
      "__PLACEHOLDER__",
      "__PLACEHOLDER__",
      null,
      null,
      null
    ],
    [
      "IT.SE.ETCD",
      1,
      "__PLACEHOLDER__",
      "__PLACEHOLDER__",
      null,
      null,
      null
    ],
    [
      "IT.SE.ELEMENT",
      1,
      "__PLACEHOLDER__",
      "__PLACEHOLDER__",
      null,
      null,
      null
    ],
    [
      "IT.SE.EPOCH",
      1,
      "__PLACEHOLDER__",
      "__PLACEHOLDER__",
      null,
      null,
      null
    ],
    [
      "IT.SE.SESTDTC",
      1,
      "__PLACEHOLDER__",
      "__PLACEHOLDER__",
      null,
      null,
      null
    ],
    [
      "IT.SE.SEENDTC",
      1,
      "__PLACEHOLDER__",
      "__PLACEHOLDER__",
      null,
      null,
      null
    ]
  ]
}