<?xml version='1.0' encoding='UTF-8'?>
<ODM FileType="Snapshot" FileOID="ODM.DEFINE21.d611c8de-4b6f-44ff-ade2-b82a6aab83d1" CreationDateTime="2026-05-07T11:43:50.402844+00:00" ODMVersion="1.3.2" def:Context="Other" AsOfDateTime="2026-05-07T11:43:50.402827+00:00" Originator="360i Define-XML Team" SourceSystem="odmlib" SourceSystemVersion="0.2" xmlns="http://www.cdisc.org/ns/odm/v1.3" xmlns:xs="http://www.w3.org/2001/XMLSchema-instance" xmlns:xml="http://www.w3.org/XML/1998/namespace" xmlns:xlink="http://www.w3.org/1999/xlink" xmlns:def="http://www.cdisc.org/ns/def/v2.1"><Study OID="ODM.LZZT - NEW.Version1.Design1"><GlobalVariables><StudyName>LZZT - NEW</StudyName><StudyDescription>Safety and Efficacy of the Xanomeline Transdermal Therapeutic System (TTS) in Patients
                with Mild to Moderate Alzheimer's Disease
            </StudyDescription><ProtocolName>LZZT - NEW</ProtocolName></GlobalVariables><MetaDataVersion OID="MDV.LZZT---NEW" Name="MDV LZZT - NEW" def:DefineVersion="2.1.0"><def:Standards><def:Standard OID="STD.SDTMIG" Name="SDTMIG" Type="IG" Version="3.4" Status="FINAL" /><def:Standard OID="STD.SDTMCT" Name="CDISC/NCI" Type="CT" Version="2025-03-28" PublishingSet="SDTM" Status="FINAL" /></def:Standards><def:ValueListDef OID="VL.SC.SCORRES"><ItemRef ItemOID="IT.SC.SCORRES.EDULEVEL" Mandatory="No"><def:WhereClauseRef WhereClauseOID="WC.SC.48924878" /></ItemRef><ItemRef ItemOID="IT.SC.SCORRES.EDUYRNUM" Mandatory="No"><def:WhereClauseRef WhereClauseOID="WC.SC.e7173a71" /></ItemRef></def:ValueListDef><def:ValueListDef OID="VL.SC.SCORRESU"><ItemRef ItemOID="IT.SC.SCORRESU.EDUYRNUM" Mandatory="No"><def:WhereClauseRef WhereClauseOID="WC.SC.5fc4562e" /></ItemRef></def:ValueListDef><def:ValueListDef OID="VL.VS.VSORRES"><ItemRef ItemOID="IT.VS.VSORRES.TEMP" Mandatory="No"><def:WhereClauseRef WhereClauseOID="WC.VS.df8e6ed8" /></ItemRef><ItemRef ItemOID="IT.VS.VSORRES.WEIGHT" Mandatory="No"><def:WhereClauseRef WhereClauseOID="WC.VS.362bc1cf" /></ItemRef><ItemRef ItemOID="IT.VS.VSORRES.HEIGHT" Mandatory="No"><def:WhereClauseRef WhereClauseOID="WC.VS.22da90ca" /></ItemRef><ItemRef ItemOID="IT.VS.VSORRES.PULSE" Mandatory="No"><def:WhereClauseRef WhereClauseOID="WC.VS.90269389" /></ItemRef><ItemRef ItemOID="IT.VS.VSORRES.RESP" Mandatory="No"><def:WhereClauseRef WhereClauseOID="WC.VS.02e0f161" /></ItemRef><ItemRef ItemOID="IT.VS.VSORRES.BMI" Mandatory="No" MethodOID="MT.VS.VSORRES.BMI"><def:WhereClauseRef WhereClauseOID="WC.VS.ba9d17a7" /></ItemRef><ItemRef ItemOID="IT.VS.VSORRES.SYSBP" Mandatory="No"><def:WhereClauseRef WhereClauseOID="WC.VS.037b6848" /></ItemRef><ItemRef ItemOID="IT.VS.VSORRES.DIABP" Mandatory="No"><def:WhereClauseRef WhereClauseOID="WC.VS.fe755a11" /></ItemRef><ItemRef ItemOID="IT.VS.VSORRES.HR" Mandatory="No"><def:WhereClauseRef WhereClauseOID="WC.VS.324e0cc0" /></ItemRef></def:ValueListDef><def:ValueListDef OID="VL.VS.VSORRESU"><ItemRef ItemOID="IT.VS.VSORRESU.TEMP" Mandatory="No"><def:WhereClauseRef WhereClauseOID="WC.VS.dea56915" /></ItemRef><ItemRef ItemOID="IT.VS.VSORRESU.WEIGHT" Mandatory="No"><def:WhereClauseRef WhereClauseOID="WC.VS.ef959fbb" /></ItemRef><ItemRef ItemOID="IT.VS.VSORRESU.HEIGHT" Mandatory="No"><def:WhereClauseRef WhereClauseOID="WC.VS.97262f9f" /></ItemRef><ItemRef ItemOID="IT.VS.VSORRESU.PULSE" Mandatory="No"><def:WhereClauseRef WhereClauseOID="WC.VS.2fad3005" /></ItemRef><ItemRef ItemOID="IT.VS.VSORRESU.RESP" Mandatory="No"><def:WhereClauseRef WhereClauseOID="WC.VS.f296848d" /></ItemRef><ItemRef ItemOID="IT.VS.VSORRESU.BMI" Mandatory="No"><def:WhereClauseRef WhereClauseOID="WC.VS.ca4251ba" /></ItemRef><ItemRef ItemOID="IT.VS.VSORRESU.SYSBP" Mandatory="No"><def:WhereClauseRef WhereClauseOID="WC.VS.301c7ee3" /></ItemRef><ItemRef ItemOID="IT.VS.VSORRESU.DIABP" Mandatory="No"><def:WhereClauseRef WhereClauseOID="WC.VS.714dfc07" /></ItemRef><ItemRef ItemOID="IT.VS.VSORRESU.HR" Mandatory="No"><def:WhereClauseRef WhereClauseOID="WC.VS.5a9c1ab0" /></ItemRef></def:ValueListDef><def:ValueListDef OID="VL.EG.EGORRES"><ItemRef ItemOID="IT.EG.EGORRES.INTP" Mandatory="No"><def:WhereClauseRef WhereClauseOID="WC.EG.f60b99cb" /></ItemRef><ItemRef ItemOID="IT.EG.EGORRES.AVCOND" Mandatory="No"><def:WhereClauseRef WhereClauseOID="WC.EG.d30401ba" /></ItemRef><ItemRef ItemOID="IT.EG.EGORRES.AXISVOLT" Mandatory="No"><def:WhereClauseRef WhereClauseOID="WC.EG.0764363d" /></ItemRef><ItemRef ItemOID="IT.EG.EGORRES.CHYPTENL" Mandatory="No"><def:WhereClauseRef WhereClauseOID="WC.EG.c7ca2c0d" /></ItemRef><ItemRef ItemOID="IT.EG.EGORRES.TECHQUAL" Mandatory="No"><def:WhereClauseRef WhereClauseOID="WC.EG.0110957e" /></ItemRef><ItemRef ItemOID="IT.EG.EGORRES.IVTIACD" Mandatory="No"><def:WhereClauseRef WhereClauseOID="WC.EG.7a2cbb17" /></ItemRef><ItemRef ItemOID="IT.EG.EGORRES.PACEMAKR" Mandatory="No"><def:WhereClauseRef WhereClauseOID="WC.EG.c82f004b" /></ItemRef><ItemRef ItemOID="IT.EG.EGORRES.RHYNOS" Mandatory="No"><def:WhereClauseRef WhereClauseOID="WC.EG.aaf51dd5" /></ItemRef><ItemRef ItemOID="IT.EG.EGORRES.SNRARRY" Mandatory="No"><def:WhereClauseRef WhereClauseOID="WC.EG.0a478649" /></ItemRef><ItemRef ItemOID="IT.EG.EGORRES.SPRARRY" Mandatory="No"><def:WhereClauseRef WhereClauseOID="WC.EG.44c12ce4" /></ItemRef><ItemRef ItemOID="IT.EG.EGORRES.SPRTARRY" Mandatory="No"><def:WhereClauseRef WhereClauseOID="WC.EG.7c9fb72d" /></ItemRef><ItemRef ItemOID="IT.EG.EGORRES.VTARRY" Mandatory="No"><def:WhereClauseRef WhereClauseOID="WC.EG.3a146a53" /></ItemRef><ItemRef ItemOID="IT.EG.EGORRES.VTTARRY" Mandatory="No"><def:WhereClauseRef WhereClauseOID="WC.EG.5571a969" /></ItemRef><ItemRef ItemOID="IT.EG.EGORRES.PRAG" Mandatory="No"><def:WhereClauseRef WhereClauseOID="WC.EG.13a9fd00" /></ItemRef><ItemRef ItemOID="IT.EG.EGORRES.QRSAG" Mandatory="No"><def:WhereClauseRef WhereClauseOID="WC.EG.72304c3a" /></ItemRef><ItemRef ItemOID="IT.EG.EGORRES.QTAG" Mandatory="No"><def:WhereClauseRef WhereClauseOID="WC.EG.6f155b1d" /></ItemRef><ItemRef ItemOID="IT.EG.EGORRES.QTCBAG" Mandatory="No"><def:WhereClauseRef WhereClauseOID="WC.EG.dff815c6" /></ItemRef><ItemRef ItemOID="IT.EG.EGORRES.QTCFAG" Mandatory="No"><def:WhereClauseRef WhereClauseOID="WC.EG.e967e1e7" /></ItemRef><ItemRef ItemOID="IT.EG.EGORRES.RRAG" Mandatory="No"><def:WhereClauseRef WhereClauseOID="WC.EG.64f26102" /></ItemRef><ItemRef ItemOID="IT.EG.EGORRES.EGHRMN" Mandatory="No"><def:WhereClauseRef WhereClauseOID="WC.EG.2ecbdce2" /></ItemRef><ItemRef ItemOID="IT.EG.EGORRES.QRS_AXIS" Mandatory="No"><def:WhereClauseRef WhereClauseOID="WC.EG.9ce29aa6" /></ItemRef></def:ValueListDef><def:ValueListDef OID="VL.EG.EGORRESU"><ItemRef ItemOID="IT.EG.EGORRESU.PRAG" Mandatory="No"><def:WhereClauseRef WhereClauseOID="WC.EG.cec16291" /></ItemRef><ItemRef ItemOID="IT.EG.EGORRESU.QRSAG" Mandatory="No"><def:WhereClauseRef WhereClauseOID="WC.EG.5a1ab0f5" /></ItemRef><ItemRef ItemOID="IT.EG.EGORRESU.QTAG" Mandatory="No"><def:WhereClauseRef WhereClauseOID="WC.EG.ddb86367" /></ItemRef><ItemRef ItemOID="IT.EG.EGORRESU.QTCBAG" Mandatory="No"><def:WhereClauseRef WhereClauseOID="WC.EG.e847517c" /></ItemRef><ItemRef ItemOID="IT.EG.EGORRESU.QTCFAG" Mandatory="No"><def:WhereClauseRef WhereClauseOID="WC.EG.7f463007" /></ItemRef><ItemRef ItemOID="IT.EG.EGORRESU.RRAG" Mandatory="No"><def:WhereClauseRef WhereClauseOID="WC.EG.3d1ba9c3" /></ItemRef><ItemRef ItemOID="IT.EG.EGORRESU.EGHRMN" Mandatory="No"><def:WhereClauseRef WhereClauseOID="WC.EG.a40eb46d" /></ItemRef><ItemRef ItemOID="IT.EG.EGORRESU.QRS_AXIS" Mandatory="No"><def:WhereClauseRef WhereClauseOID="WC.EG.02ebb46f" /></ItemRef></def:ValueListDef><def:ValueListDef OID="VL.LB.LBORRES"><ItemRef ItemOID="IT.LB.LBORRES.HGB" Mandatory="No"><def:WhereClauseRef WhereClauseOID="WC.LB.c192b07f" /></ItemRef><ItemRef ItemOID="IT.LB.LBORRES.HCT" Mandatory="No"><def:WhereClauseRef WhereClauseOID="WC.LB.82b97100" /></ItemRef><ItemRef ItemOID="IT.LB.LBORRES.RBC" Mandatory="No"><def:WhereClauseRef WhereClauseOID="WC.LB.87582e25" /></ItemRef><ItemRef ItemOID="IT.LB.LBORRES.MCH" Mandatory="No"><def:WhereClauseRef WhereClauseOID="WC.LB.95f4de22" /></ItemRef><ItemRef ItemOID="IT.LB.LBORRES.MCHC" Mandatory="No"><def:WhereClauseRef WhereClauseOID="WC.LB.92bd1f17" /></ItemRef><ItemRef ItemOID="IT.LB.LBORRES.MCV" Mandatory="No"><def:WhereClauseRef WhereClauseOID="WC.LB.24c0e2bc" /></ItemRef><ItemRef ItemOID="IT.LB.LBORRES.WBC" Mandatory="No"><def:WhereClauseRef WhereClauseOID="WC.LB.351df44b" /></ItemRef><ItemRef ItemOID="IT.LB.LBORRES.NEUTSG" Mandatory="No"><def:WhereClauseRef WhereClauseOID="WC.LB.5f2a0bab" /></ItemRef><ItemRef ItemOID="IT.LB.LBORRES.NEUTB" Mandatory="No"><def:WhereClauseRef WhereClauseOID="WC.LB.eea0ae49" /></ItemRef><ItemRef ItemOID="IT.LB.LBORRES.NEUT" Mandatory="No"><def:WhereClauseRef WhereClauseOID="WC.LB.550c7a01" /></ItemRef><ItemRef ItemOID="IT.LB.LBORRES.MONO" Mandatory="No"><def:WhereClauseRef WhereClauseOID="WC.LB.de4c119b" /></ItemRef><ItemRef ItemOID="IT.LB.LBORRES.EOS" Mandatory="No"><def:WhereClauseRef WhereClauseOID="WC.LB.a5684311" /></ItemRef><ItemRef ItemOID="IT.LB.LBORRES.BASO" Mandatory="No"><def:WhereClauseRef WhereClauseOID="WC.LB.7b86c15b" /></ItemRef><ItemRef ItemOID="IT.LB.LBORRES.PLAT" Mandatory="No"><def:WhereClauseRef WhereClauseOID="WC.LB.3a9d73e1" /></ItemRef><ItemRef ItemOID="IT.LB.LBORRES.MICROCY" Mandatory="No"><def:WhereClauseRef WhereClauseOID="WC.LB.ddc3319f" /></ItemRef><ItemRef ItemOID="IT.LB.LBORRES.MACROCY" Mandatory="No"><def:WhereClauseRef WhereClauseOID="WC.LB.116f85e4" /></ItemRef><ItemRef ItemOID="IT.LB.LBORRES.ANISO" Mandatory="No"><def:WhereClauseRef WhereClauseOID="WC.LB.84ceb0ad" /></ItemRef><ItemRef ItemOID="IT.LB.LBORRES.POIKILO" Mandatory="No"><def:WhereClauseRef WhereClauseOID="WC.LB.b622c728" /></ItemRef><ItemRef ItemOID="IT.LB.LBORRES.POLYCHR" Mandatory="No"><def:WhereClauseRef WhereClauseOID="WC.LB.87b1b367" /></ItemRef><ItemRef ItemOID="IT.LB.LBORRES.ALT" Mandatory="No"><def:WhereClauseRef WhereClauseOID="WC.LB.5412b298" /></ItemRef><ItemRef ItemOID="IT.LB.LBORRES.ALB" Mandatory="No"><def:WhereClauseRef WhereClauseOID="WC.LB.e42a3c09" /></ItemRef><ItemRef ItemOID="IT.LB.LBORRES.ALP" Mandatory="No"><def:WhereClauseRef WhereClauseOID="WC.LB.cdac7fcc" /></ItemRef><ItemRef ItemOID="IT.LB.LBORRES.AST" Mandatory="No"><def:WhereClauseRef WhereClauseOID="WC.LB.b9d7ddba" /></ItemRef><ItemRef ItemOID="IT.LB.LBORRES.CREAT" Mandatory="No"><def:WhereClauseRef WhereClauseOID="WC.LB.969c1a6d" /></ItemRef><ItemRef ItemOID="IT.LB.LBORRES.K" Mandatory="No"><def:WhereClauseRef WhereClauseOID="WC.LB.7ce691fd" /></ItemRef><ItemRef ItemOID="IT.LB.LBORRES.SODIUM" Mandatory="No"><def:WhereClauseRef WhereClauseOID="WC.LB.88601b52" /></ItemRef><ItemRef ItemOID="IT.LB.LBORRES.UREAN" Mandatory="No"><def:WhereClauseRef WhereClauseOID="WC.LB.42392cd1" /></ItemRef><ItemRef ItemOID="IT.LB.LBORRES.BICARB" Mandatory="No"><def:WhereClauseRef WhereClauseOID="WC.LB.9279ec22" /></ItemRef><ItemRef ItemOID="IT.LB.LBORRES.CL" Mandatory="No"><def:WhereClauseRef WhereClauseOID="WC.LB.8b779a3b" /></ItemRef><ItemRef ItemOID="IT.LB.LBORRES.BILI" Mandatory="No"><def:WhereClauseRef WhereClauseOID="WC.LB.cfe14422" /></ItemRef><ItemRef ItemOID="IT.LB.LBORRES.GGT" Mandatory="No"><def:WhereClauseRef WhereClauseOID="WC.LB.8285c765" /></ItemRef><ItemRef ItemOID="IT.LB.LBORRES.URATE" Mandatory="No"><def:WhereClauseRef WhereClauseOID="WC.LB.37c7b4ba" /></ItemRef><ItemRef ItemOID="IT.LB.LBORRES.PHOS" Mandatory="No"><def:WhereClauseRef WhereClauseOID="WC.LB.e4e81dc5" /></ItemRef><ItemRef ItemOID="IT.LB.LBORRES.CA" Mandatory="No"><def:WhereClauseRef WhereClauseOID="WC.LB.470def9b" /></ItemRef><ItemRef ItemOID="IT.LB.LBORRES.GLUC" Mandatory="No"><def:WhereClauseRef WhereClauseOID="WC.LB.c891c160" /></ItemRef><ItemRef ItemOID="IT.LB.LBORRES.PROT" Mandatory="No"><def:WhereClauseRef WhereClauseOID="WC.LB.abcfd20c" /></ItemRef><ItemRef ItemOID="IT.LB.LBORRES.CHOL" Mandatory="No"><def:WhereClauseRef WhereClauseOID="WC.LB.5a1bca67" /></ItemRef><ItemRef ItemOID="IT.LB.LBORRES.T3UP" Mandatory="No"><def:WhereClauseRef WhereClauseOID="WC.LB.4226ee02" /></ItemRef><ItemRef ItemOID="IT.LB.LBORRES.T3" Mandatory="No"><def:WhereClauseRef WhereClauseOID="WC.LB.df33e99e" /></ItemRef><ItemRef ItemOID="IT.LB.LBORRES.T4FR" Mandatory="No"><def:WhereClauseRef WhereClauseOID="WC.LB.30f3d8b3" /></ItemRef><ItemRef ItemOID="IT.LB.LBORRES.T4FRIDX" Mandatory="No"><def:WhereClauseRef WhereClauseOID="WC.LB.f59f4529" /></ItemRef><ItemRef ItemOID="IT.LB.LBORRES.TSH" Mandatory="No"><def:WhereClauseRef WhereClauseOID="WC.LB.c54221c6" /></ItemRef><ItemRef ItemOID="IT.LB.LBORRES.VITB9" Mandatory="No"><def:WhereClauseRef WhereClauseOID="WC.LB.cb02cad8" /></ItemRef><ItemRef ItemOID="IT.LB.LBORRES.VITB12" Mandatory="No"><def:WhereClauseRef WhereClauseOID="WC.LB.d0f49556" /></ItemRef><ItemRef ItemOID="IT.LB.LBORRES.COLOR" Mandatory="No"><def:WhereClauseRef WhereClauseOID="WC.LB.4987b41e" /></ItemRef><ItemRef ItemOID="IT.LB.LBORRES.SPGRAV" Mandatory="No"><def:WhereClauseRef WhereClauseOID="WC.LB.cbf789d8" /></ItemRef><ItemRef ItemOID="IT.LB.LBORRES.KETONES" Mandatory="No"><def:WhereClauseRef WhereClauseOID="WC.LB.3239d7a3" /></ItemRef><ItemRef ItemOID="IT.LB.LBORRES.UROBIL" Mandatory="No"><def:WhereClauseRef WhereClauseOID="WC.LB.59366afe" /></ItemRef><ItemRef ItemOID="IT.LB.LBORRES.OCCBLD" Mandatory="No"><def:WhereClauseRef WhereClauseOID="WC.LB.3adc4566" /></ItemRef><ItemRef ItemOID="IT.LB.LBORRES.NITRITE" Mandatory="No"><def:WhereClauseRef WhereClauseOID="WC.LB.59074de1" /></ItemRef><ItemRef ItemOID="IT.LB.LBORRES.HBA1C" Mandatory="No"><def:WhereClauseRef WhereClauseOID="WC.LB.c1765eee" /></ItemRef><ItemRef ItemOID="IT.LB.LBORRES.HBA1CHGB" Mandatory="No"><def:WhereClauseRef WhereClauseOID="WC.LB.dd459ec6" /></ItemRef></def:ValueListDef><def:ValueListDef OID="VL.LB.LBORRESU"><ItemRef ItemOID="IT.LB.LBORRESU.HGB" Mandatory="No"><def:WhereClauseRef WhereClauseOID="WC.LB.e9a1c33d" /></ItemRef><ItemRef ItemOID="IT.LB.LBORRESU.HCT" Mandatory="No"><def:WhereClauseRef WhereClauseOID="WC.LB.7f0975c7" /></ItemRef><ItemRef ItemOID="IT.LB.LBORRESU.RBC" Mandatory="No"><def:WhereClauseRef WhereClauseOID="WC.LB.f7f1de35" /></ItemRef><ItemRef ItemOID="IT.LB.LBORRESU.MCH" Mandatory="No"><def:WhereClauseRef WhereClauseOID="WC.LB.c32acb17" /></ItemRef><ItemRef ItemOID="IT.LB.LBORRESU.MCHC" Mandatory="No"><def:WhereClauseRef WhereClauseOID="WC.LB.eb7f048a" /></ItemRef><ItemRef ItemOID="IT.LB.LBORRESU.MCV" Mandatory="No"><def:WhereClauseRef WhereClauseOID="WC.LB.e881d4b5" /></ItemRef><ItemRef ItemOID="IT.LB.LBORRESU.WBC" Mandatory="No"><def:WhereClauseRef WhereClauseOID="WC.LB.41785be6" /></ItemRef><ItemRef ItemOID="IT.LB.LBORRESU.NEUTSG" Mandatory="No"><def:WhereClauseRef WhereClauseOID="WC.LB.a68e5eaa" /></ItemRef><ItemRef ItemOID="IT.LB.LBORRESU.NEUTB" Mandatory="No"><def:WhereClauseRef WhereClauseOID="WC.LB.aad6dbd6" /></ItemRef><ItemRef ItemOID="IT.LB.LBORRESU.NEUT" Mandatory="No"><def:WhereClauseRef WhereClauseOID="WC.LB.d13d6578" /></ItemRef><ItemRef ItemOID="IT.LB.LBORRESU.MONO" Mandatory="No"><def:WhereClauseRef WhereClauseOID="WC.LB.00e6d228" /></ItemRef><ItemRef ItemOID="IT.LB.LBORRESU.EOS" Mandatory="No"><def:WhereClauseRef WhereClauseOID="WC.LB.ef654de1" /></ItemRef><ItemRef ItemOID="IT.LB.LBORRESU.BASO" Mandatory="No"><def:WhereClauseRef WhereClauseOID="WC.LB.b6fa6e8d" /></ItemRef><ItemRef ItemOID="IT.LB.LBORRESU.PLAT" Mandatory="No"><def:WhereClauseRef WhereClauseOID="WC.LB.90eedf3b" /></ItemRef><ItemRef ItemOID="IT.LB.LBORRESU.ALT" Mandatory="No"><def:WhereClauseRef WhereClauseOID="WC.LB.8914eb45" /></ItemRef><ItemRef ItemOID="IT.LB.LBORRESU.ALP" Mandatory="No"><def:WhereClauseRef WhereClauseOID="WC.LB.6660e11c" /></ItemRef><ItemRef ItemOID="IT.LB.LBORRESU.AST" Mandatory="No"><def:WhereClauseRef WhereClauseOID="WC.LB.37e389df" /></ItemRef><ItemRef ItemOID="IT.LB.LBORRESU.CREAT" Mandatory="No"><def:WhereClauseRef WhereClauseOID="WC.LB.549f5ae4" /></ItemRef><ItemRef ItemOID="IT.LB.LBORRESU.K" Mandatory="No"><def:WhereClauseRef WhereClauseOID="WC.LB.ee634517" /></ItemRef><ItemRef ItemOID="IT.LB.LBORRESU.SODIUM" Mandatory="No"><def:WhereClauseRef WhereClauseOID="WC.LB.07a8daa1" /></ItemRef><ItemRef ItemOID="IT.LB.LBORRESU.UREAN" Mandatory="No"><def:WhereClauseRef WhereClauseOID="WC.LB.91d1c3d5" /></ItemRef><ItemRef ItemOID="IT.LB.LBORRESU.BICARB" Mandatory="No"><def:WhereClauseRef WhereClauseOID="WC.LB.9df0845c" /></ItemRef><ItemRef ItemOID="IT.LB.LBORRESU.CL" Mandatory="No"><def:WhereClauseRef WhereClauseOID="WC.LB.cc8b6004" /></ItemRef><ItemRef ItemOID="IT.LB.LBORRESU.GGT" Mandatory="No"><def:WhereClauseRef WhereClauseOID="WC.LB.3c564f36" /></ItemRef><ItemRef ItemOID="IT.LB.LBORRESU.URATE" Mandatory="No"><def:WhereClauseRef WhereClauseOID="WC.LB.13fbb1a5" /></ItemRef><ItemRef ItemOID="IT.LB.LBORRESU.PHOS" Mandatory="No"><def:WhereClauseRef WhereClauseOID="WC.LB.3749493c" /></ItemRef><ItemRef ItemOID="IT.LB.LBORRESU.CA" Mandatory="No"><def:WhereClauseRef WhereClauseOID="WC.LB.38f9f39d" /></ItemRef><ItemRef ItemOID="IT.LB.LBORRESU.CHOL" Mandatory="No"><def:WhereClauseRef WhereClauseOID="WC.LB.516f3664" /></ItemRef><ItemRef ItemOID="IT.LB.LBORRESU.T3UP" Mandatory="No"><def:WhereClauseRef WhereClauseOID="WC.LB.dcbcbe57" /></ItemRef><ItemRef ItemOID="IT.LB.LBORRESU.T3" Mandatory="No"><def:WhereClauseRef WhereClauseOID="WC.LB.b7b215a1" /></ItemRef><ItemRef ItemOID="IT.LB.LBORRESU.T4FR" Mandatory="No"><def:WhereClauseRef WhereClauseOID="WC.LB.0f071538" /></ItemRef><ItemRef ItemOID="IT.LB.LBORRESU.T4FRIDX" Mandatory="No"><def:WhereClauseRef WhereClauseOID="WC.LB.258e657c" /></ItemRef><ItemRef ItemOID="IT.LB.LBORRESU.TSH" Mandatory="No"><def:WhereClauseRef WhereClauseOID="WC.LB.d675561c" /></ItemRef><ItemRef ItemOID="IT.LB.LBORRESU.VITB9" Mandatory="No"><def:WhereClauseRef WhereClauseOID="WC.LB.e81938d6" /></ItemRef><ItemRef ItemOID="IT.LB.LBORRESU.VITB12" Mandatory="No"><def:WhereClauseRef WhereClauseOID="WC.LB.54dda2d1" /></ItemRef><ItemRef ItemOID="IT.LB.LBORRESU.UROBIL" Mandatory="No"><def:WhereClauseRef WhereClauseOID="WC.LB.e6a434ec" /></ItemRef><ItemRef ItemOID="IT.LB.LBORRESU.HBA1C" Mandatory="No"><def:WhereClauseRef WhereClauseOID="WC.LB.9e9118c8" /></ItemRef><ItemRef ItemOID="IT.LB.LBORRESU.HBA1CHGB" Mandatory="No"><def:WhereClauseRef WhereClauseOID="WC.LB.8644d9ca" /></ItemRef></def:ValueListDef><def:ValueListDef OID="VL.MB.MBORRES"><ItemRef ItemOID="IT.MB.MBORRES.TPLAB" Mandatory="No"><def:WhereClauseRef WhereClauseOID="WC.MB.49773274" /></ItemRef><ItemRef ItemOID="IT.MB.MBORRES.TPADNA" Mandatory="No"><def:WhereClauseRef WhereClauseOID="WC.MB.e698c5a2" /></ItemRef></def:ValueListDef><def:ValueListDef OID="VL.TS.TSPARMCD"><ItemRef ItemOID="IT.TS.TSPARMCD.ADAPT" Mandatory="No"><def:WhereClauseRef WhereClauseOID="WC.TS.08ebd0ce" /></ItemRef><ItemRef ItemOID="IT.TS.TSPARMCD.AGEMIN" Mandatory="No"><def:WhereClauseRef WhereClauseOID="WC.TS.a7d24f4a" /></ItemRef><ItemRef ItemOID="IT.TS.TSPARMCD.AGEMAX" Mandatory="No"><def:WhereClauseRef WhereClauseOID="WC.TS.4ac86c98" /></ItemRef><ItemRef ItemOID="IT.TS.TSPARMCD.COMPTRT" Mandatory="No"><def:WhereClauseRef WhereClauseOID="WC.TS.54cd02f1" /></ItemRef><ItemRef ItemOID="IT.TS.TSPARMCD.CRMDUR" Mandatory="No"><def:WhereClauseRef WhereClauseOID="WC.TS.f9fa8745" /></ItemRef><ItemRef ItemOID="IT.TS.TSPARMCD.DOSE" Mandatory="No"><def:WhereClauseRef WhereClauseOID="WC.TS.7fc6c3e6" /></ItemRef><ItemRef ItemOID="IT.TS.TSPARMCD.DOSFRQ" Mandatory="No"><def:WhereClauseRef WhereClauseOID="WC.TS.5cd14c68" /></ItemRef><ItemRef ItemOID="IT.TS.TSPARMCD.DOSU" Mandatory="No"><def:WhereClauseRef WhereClauseOID="WC.TS.4053f56c" /></ItemRef><ItemRef ItemOID="IT.TS.TSPARMCD.INDIC" Mandatory="No"><def:WhereClauseRef WhereClauseOID="WC.TS.9cdae039" /></ItemRef><ItemRef ItemOID="IT.TS.TSPARMCD.INTMODEL" Mandatory="No"><def:WhereClauseRef WhereClauseOID="WC.TS.2c83b5d9" /></ItemRef><ItemRef ItemOID="IT.TS.TSPARMCD.INTTYPE" Mandatory="No"><def:WhereClauseRef WhereClauseOID="WC.TS.e3ae16cd" /></ItemRef><ItemRef ItemOID="IT.TS.TSPARMCD.NARMS" Mandatory="No"><def:WhereClauseRef WhereClauseOID="WC.TS.89c0d243" /></ItemRef><ItemRef ItemOID="IT.TS.TSPARMCD.OBJPRIM" Mandatory="No"><def:WhereClauseRef WhereClauseOID="WC.TS.7a056c75" /></ItemRef><ItemRef ItemOID="IT.TS.TSPARMCD.OBJSEC" Mandatory="No"><def:WhereClauseRef WhereClauseOID="WC.TS.36721696" /></ItemRef><ItemRef ItemOID="IT.TS.TSPARMCD.OUTMSPRI" Mandatory="No"><def:WhereClauseRef WhereClauseOID="WC.TS.d8b84608" /></ItemRef><ItemRef ItemOID="IT.TS.TSPARMCD.OUTMSSEC" Mandatory="No"><def:WhereClauseRef WhereClauseOID="WC.TS.1d3cd461" /></ItemRef><ItemRef ItemOID="IT.TS.TSPARMCD.PLANSUB" Mandatory="No"><def:WhereClauseRef WhereClauseOID="WC.TS.3a1c5c3c" /></ItemRef><ItemRef ItemOID="IT.TS.TSPARMCD.PTRTDUR" Mandatory="No"><def:WhereClauseRef WhereClauseOID="WC.TS.2b2d70bc" /></ItemRef><ItemRef ItemOID="IT.TS.TSPARMCD.ROUTE" Mandatory="No"><def:WhereClauseRef WhereClauseOID="WC.TS.3c4a8bf2" /></ItemRef><ItemRef ItemOID="IT.TS.TSPARMCD.SEXPOP" Mandatory="No"><def:WhereClauseRef WhereClauseOID="WC.TS.4f0c74c2" /></ItemRef><ItemRef ItemOID="IT.TS.TSPARMCD.SPONSOR" Mandatory="No"><def:WhereClauseRef WhereClauseOID="WC.TS.51236927" /></ItemRef><ItemRef ItemOID="IT.TS.TSPARMCD.STYPE" Mandatory="No"><def:WhereClauseRef WhereClauseOID="WC.TS.f4cb41bb" /></ItemRef><ItemRef ItemOID="IT.TS.TSPARMCD.TBLIND" Mandatory="No"><def:WhereClauseRef WhereClauseOID="WC.TS.9e101607" /></ItemRef><ItemRef ItemOID="IT.TS.TSPARMCD.THERAREA" Mandatory="No"><def:WhereClauseRef WhereClauseOID="WC.TS.d8c1ac4c" /></ItemRef><ItemRef ItemOID="IT.TS.TSPARMCD.TINDTP" Mandatory="No"><def:WhereClauseRef WhereClauseOID="WC.TS.e423672b" /></ItemRef><ItemRef ItemOID="IT.TS.TSPARMCD.TITLE" Mandatory="No"><def:WhereClauseRef WhereClauseOID="WC.TS.43684533" /></ItemRef><ItemRef ItemOID="IT.TS.TSPARMCD.TPHASE" Mandatory="No"><def:WhereClauseRef WhereClauseOID="WC.TS.22640600" /></ItemRef><ItemRef ItemOID="IT.TS.TSPARMCD.TRT" Mandatory="No"><def:WhereClauseRef WhereClauseOID="WC.TS.1948fed3" /></ItemRef><ItemRef ItemOID="IT.TS.TSPARMCD.TTYPE" Mandatory="No"><def:WhereClauseRef WhereClauseOID="WC.TS.29af0670" /></ItemRef></def:ValueListDef><def:ValueListDef OID="VL.IE.IEORRES"><ItemRef ItemOID="IT.IE.IEORRES.IN01" Mandatory="No"><def:WhereClauseRef WhereClauseOID="WC.IE.1d2bb25f" /></ItemRef><ItemRef ItemOID="IT.IE.IEORRES.IN02" Mandatory="No"><def:WhereClauseRef WhereClauseOID="WC.IE.fa688bf3" /></ItemRef><ItemRef ItemOID="IT.IE.IEORRES.IN03" Mandatory="No"><def:WhereClauseRef WhereClauseOID="WC.IE.f276b607" /></ItemRef><ItemRef ItemOID="IT.IE.IEORRES.IN04" Mandatory="No"><def:WhereClauseRef WhereClauseOID="WC.IE.cd528448" /></ItemRef><ItemRef ItemOID="IT.IE.IEORRES.IN05" Mandatory="No"><def:WhereClauseRef WhereClauseOID="WC.IE.c1db3fd3" /></ItemRef><ItemRef ItemOID="IT.IE.IEORRES.IN06" Mandatory="No"><def:WhereClauseRef WhereClauseOID="WC.IE.c2ec614b" /></ItemRef><ItemRef ItemOID="IT.IE.IEORRES.IN07" Mandatory="No"><def:WhereClauseRef WhereClauseOID="WC.IE.2ef341aa" /></ItemRef><ItemRef ItemOID="IT.IE.IEORRES.IN08" Mandatory="No"><def:WhereClauseRef WhereClauseOID="WC.IE.5d85184b" /></ItemRef><ItemRef ItemOID="IT.IE.IEORRES.EX01" Mandatory="No"><def:WhereClauseRef WhereClauseOID="WC.IE.8579104c" /></ItemRef><ItemRef ItemOID="IT.IE.IEORRES.EX02" Mandatory="No"><def:WhereClauseRef WhereClauseOID="WC.IE.74eacc45" /></ItemRef><ItemRef ItemOID="IT.IE.IEORRES.EX03" Mandatory="No"><def:WhereClauseRef WhereClauseOID="WC.IE.ce0e8d09" /></ItemRef><ItemRef ItemOID="IT.IE.IEORRES.EX04" Mandatory="No"><def:WhereClauseRef WhereClauseOID="WC.IE.945bafbd" /></ItemRef><ItemRef ItemOID="IT.IE.IEORRES.EX05" Mandatory="No"><def:WhereClauseRef WhereClauseOID="WC.IE.afbec960" /></ItemRef><ItemRef ItemOID="IT.IE.IEORRES.EX06" Mandatory="No"><def:WhereClauseRef WhereClauseOID="WC.IE.cac0d3f4" /></ItemRef><ItemRef ItemOID="IT.IE.IEORRES.EX07" Mandatory="No"><def:WhereClauseRef WhereClauseOID="WC.IE.cabd9be0" /></ItemRef><ItemRef ItemOID="IT.IE.IEORRES.EX08" Mandatory="No"><def:WhereClauseRef WhereClauseOID="WC.IE.fbae7983" /></ItemRef><ItemRef ItemOID="IT.IE.IEORRES.EX09" Mandatory="No"><def:WhereClauseRef WhereClauseOID="WC.IE.0952c014" /></ItemRef><ItemRef ItemOID="IT.IE.IEORRES.EX10" Mandatory="No"><def:WhereClauseRef WhereClauseOID="WC.IE.5b8b02b2" /></ItemRef><ItemRef ItemOID="IT.IE.IEORRES.EX11" Mandatory="No"><def:WhereClauseRef WhereClauseOID="WC.IE.70a941e7" /></ItemRef><ItemRef ItemOID="IT.IE.IEORRES.EX12" Mandatory="No"><def:WhereClauseRef WhereClauseOID="WC.IE.611f5d7b" /></ItemRef><ItemRef ItemOID="IT.IE.IEORRES.EX13" Mandatory="No"><def:WhereClauseRef WhereClauseOID="WC.IE.8abff918" /></ItemRef><ItemRef ItemOID="IT.IE.IEORRES.EX14" Mandatory="No"><def:WhereClauseRef WhereClauseOID="WC.IE.b089a2a0" /></ItemRef><ItemRef ItemOID="IT.IE.IEORRES.EX15" Mandatory="No"><def:WhereClauseRef WhereClauseOID="WC.IE.39cb2456" /></ItemRef><ItemRef ItemOID="IT.IE.IEORRES.EX16" Mandatory="No"><def:WhereClauseRef WhereClauseOID="WC.IE.2cdb5c18" /></ItemRef><ItemRef ItemOID="IT.IE.IEORRES.EX17" Mandatory="No"><def:WhereClauseRef WhereClauseOID="WC.IE.b415f3a9" /></ItemRef><ItemRef ItemOID="IT.IE.IEORRES.EX18" Mandatory="No"><def:WhereClauseRef WhereClauseOID="WC.IE.5c29f970" /></ItemRef><ItemRef ItemOID="IT.IE.IEORRES.EX19" Mandatory="No"><def:WhereClauseRef WhereClauseOID="WC.IE.9fe9a358" /></ItemRef><ItemRef ItemOID="IT.IE.IEORRES.EX20" Mandatory="No"><def:WhereClauseRef WhereClauseOID="WC.IE.e36b210b" /></ItemRef><ItemRef ItemOID="IT.IE.IEORRES.EX21" Mandatory="No"><def:WhereClauseRef WhereClauseOID="WC.IE.743b4fb5" /></ItemRef><ItemRef ItemOID="IT.IE.IEORRES.EX22" Mandatory="No"><def:WhereClauseRef WhereClauseOID="WC.IE.76a82754" /></ItemRef><ItemRef ItemOID="IT.IE.IEORRES.EX23" Mandatory="No"><def:WhereClauseRef WhereClauseOID="WC.IE.fbeb5a1e" /></ItemRef></def:ValueListDef><def:WhereClauseDef OID="WC.SC.48924878"><RangeCheck Comparator="EQ" SoftHard="Soft" def:ItemOID="IT.SC.SCTESTCD"><CheckValue>EDULEVEL</CheckValue></RangeCheck></def:WhereClauseDef><def:WhereClauseDef OID="WC.SC.e7173a71"><RangeCheck Comparator="EQ" SoftHard="Soft" def:ItemOID="IT.SC.SCTESTCD"><CheckValue>EDUYRNUM</CheckValue></RangeCheck></def:WhereClauseDef><def:WhereClauseDef OID="WC.SC.5fc4562e"><RangeCheck Comparator="EQ" SoftHard="Soft" def:ItemOID="IT.SC.SCTESTCD"><CheckValue>EDUYRNUM</CheckValue></RangeCheck></def:WhereClauseDef><def:WhereClauseDef OID="WC.VS.df8e6ed8"><RangeCheck Comparator="EQ" SoftHard="Soft" def:ItemOID="IT.VS.VSTESTCD"><CheckValue>TEMP</CheckValue></RangeCheck><RangeCheck Comparator="IN" SoftHard="Soft" def:ItemOID="IT.VS.VSLOC"><CheckValue>AXILLA</CheckValue><CheckValue>EAR</CheckValue><CheckValue>FOREHEAD</CheckValue><CheckValue>ORAL CAVITY</CheckValue><CheckValue>RECTUM</CheckValue></RangeCheck></def:WhereClauseDef><def:WhereClauseDef OID="WC.VS.362bc1cf"><RangeCheck Comparator="EQ" SoftHard="Soft" def:ItemOID="IT.VS.VSTESTCD"><CheckValue>WEIGHT</CheckValue></RangeCheck></def:WhereClauseDef><def:WhereClauseDef OID="WC.VS.22da90ca"><RangeCheck Comparator="EQ" SoftHard="Soft" def:ItemOID="IT.VS.VSTESTCD"><CheckValue>HEIGHT</CheckValue></RangeCheck></def:WhereClauseDef><def:WhereClauseDef OID="WC.VS.90269389"><RangeCheck Comparator="EQ" SoftHard="Soft" def:ItemOID="IT.VS.VSTESTCD"><CheckValue>PULSE</CheckValue></RangeCheck><RangeCheck Comparator="IN" SoftHard="Soft" def:ItemOID="IT.VS.VSPOS"><CheckValue>PRONE</CheckValue><CheckValue>SEMI-RECUMBENT</CheckValue><CheckValue>SITTING</CheckValue><CheckValue>STANDING</CheckValue><CheckValue>SUPINE</CheckValue></RangeCheck><RangeCheck Comparator="IN" SoftHard="Soft" def:ItemOID="IT.VS.VSLOC"><CheckValue>BRACHIAL ARTERY</CheckValue><CheckValue>CAROTID ARTERY</CheckValue><CheckValue>CEREBRAL ARTERY</CheckValue><CheckValue>DORSALIS PEDIS ARTERY</CheckValue><CheckValue>FEMORAL ARTERY</CheckValue><CheckValue>RADIAL ARTERY</CheckValue></RangeCheck><RangeCheck Comparator="IN" SoftHard="Soft" def:ItemOID="IT.VS.VSLAT"><CheckValue>LEFT</CheckValue><CheckValue>RIGHT</CheckValue></RangeCheck></def:WhereClauseDef><def:WhereClauseDef OID="WC.VS.02e0f161"><RangeCheck Comparator="EQ" SoftHard="Soft" def:ItemOID="IT.VS.VSTESTCD"><CheckValue>RESP</CheckValue></RangeCheck></def:WhereClauseDef><def:WhereClauseDef OID="WC.VS.ba9d17a7"><RangeCheck Comparator="EQ" SoftHard="Soft" def:ItemOID="IT.VS.VSTESTCD"><CheckValue>BMI</CheckValue></RangeCheck></def:WhereClauseDef><def:WhereClauseDef OID="WC.VS.037b6848"><RangeCheck Comparator="EQ" SoftHard="Soft" def:ItemOID="IT.VS.VSTESTCD"><CheckValue>SYSBP</CheckValue></RangeCheck><RangeCheck Comparator="IN" SoftHard="Soft" def:ItemOID="IT.VS.VSPOS"><CheckValue>PRONE</CheckValue><CheckValue>SEMI-RECUMBENT</CheckValue><CheckValue>SITTING</CheckValue><CheckValue>STANDING</CheckValue><CheckValue>SUPINE</CheckValue></RangeCheck><RangeCheck Comparator="IN" SoftHard="Soft" def:ItemOID="IT.VS.VSLOC"><CheckValue>BRACHIAL ARTERY</CheckValue><CheckValue>CAROTID ARTERY</CheckValue><CheckValue>DORSALIS PEDIS ARTERY</CheckValue><CheckValue>FEMORAL ARTERY</CheckValue><CheckValue>FINGER</CheckValue><CheckValue>RADIAL ARTERY</CheckValue></RangeCheck><RangeCheck Comparator="IN" SoftHard="Soft" def:ItemOID="IT.VS.VSLAT"><CheckValue>LEFT</CheckValue><CheckValue>RIGHT</CheckValue></RangeCheck></def:WhereClauseDef><def:WhereClauseDef OID="WC.VS.fe755a11"><RangeCheck Comparator="EQ" SoftHard="Soft" def:ItemOID="IT.VS.VSTESTCD"><CheckValue>DIABP</CheckValue></RangeCheck><RangeCheck Comparator="IN" SoftHard="Soft" def:ItemOID="IT.VS.VSPOS"><CheckValue>PRONE</CheckValue><CheckValue>SEMI-RECUMBENT</CheckValue><CheckValue>SITTING</CheckValue><CheckValue>STANDING</CheckValue><CheckValue>SUPINE</CheckValue></RangeCheck><RangeCheck Comparator="IN" SoftHard="Soft" def:ItemOID="IT.VS.VSLOC"><CheckValue>BRACHIAL ARTERY</CheckValue><CheckValue>CAROTID ARTERY</CheckValue><CheckValue>DORSALIS PEDIS ARTERY</CheckValue><CheckValue>FEMORAL ARTERY</CheckValue><CheckValue>FINGER</CheckValue><CheckValue>RADIAL ARTERY</CheckValue></RangeCheck><RangeCheck Comparator="IN" SoftHard="Soft" def:ItemOID="IT.VS.VSLAT"><CheckValue>LEFT</CheckValue><CheckValue>RIGHT</CheckValue></RangeCheck></def:WhereClauseDef><def:WhereClauseDef OID="WC.VS.324e0cc0"><RangeCheck Comparator="EQ" SoftHard="Soft" def:ItemOID="IT.VS.VSTESTCD"><CheckValue>HR</CheckValue></RangeCheck><RangeCheck Comparator="IN" SoftHard="Soft" def:ItemOID="IT.VS.VSPOS"><CheckValue>PRONE</CheckValue><CheckValue>SEMI-RECUMBENT</CheckValue><CheckValue>SITTING</CheckValue><CheckValue>STANDING</CheckValue><CheckValue>SUPINE</CheckValue></RangeCheck><RangeCheck Comparator="IN" SoftHard="Soft" def:ItemOID="IT.VS.VSLOC"><CheckValue>BRACHIAL ARTERY</CheckValue><CheckValue>CAROTID ARTERY</CheckValue><CheckValue>CEREBRAL ARTERY</CheckValue><CheckValue>DORSALIS PEDIS ARTERY</CheckValue><CheckValue>FEMORAL ARTERY</CheckValue><CheckValue>RADIAL ARTERY</CheckValue></RangeCheck><RangeCheck Comparator="IN" SoftHard="Soft" def:ItemOID="IT.VS.VSLAT"><CheckValue>LEFT</CheckValue><CheckValue>RIGHT</CheckValue></RangeCheck></def:WhereClauseDef><def:WhereClauseDef OID="WC.VS.dea56915"><RangeCheck Comparator="EQ" SoftHard="Soft" def:ItemOID="IT.VS.VSTESTCD"><CheckValue>TEMP</CheckValue></RangeCheck><RangeCheck Comparator="IN" SoftHard="Soft" def:ItemOID="IT.VS.VSLOC"><CheckValue>AXILLA</CheckValue><CheckValue>EAR</CheckValue><CheckValue>FOREHEAD</CheckValue><CheckValue>ORAL CAVITY</CheckValue><CheckValue>RECTUM</CheckValue></RangeCheck></def:WhereClauseDef><def:WhereClauseDef OID="WC.VS.ef959fbb"><RangeCheck Comparator="EQ" SoftHard="Soft" def:ItemOID="IT.VS.VSTESTCD"><CheckValue>WEIGHT</CheckValue></RangeCheck></def:WhereClauseDef><def:WhereClauseDef OID="WC.VS.97262f9f"><RangeCheck Comparator="EQ" SoftHard="Soft" def:ItemOID="IT.VS.VSTESTCD"><CheckValue>HEIGHT</CheckValue></RangeCheck></def:WhereClauseDef><def:WhereClauseDef OID="WC.VS.2fad3005"><RangeCheck Comparator="EQ" SoftHard="Soft" def:ItemOID="IT.VS.VSTESTCD"><CheckValue>PULSE</CheckValue></RangeCheck><RangeCheck Comparator="IN" SoftHard="Soft" def:ItemOID="IT.VS.VSPOS"><CheckValue>PRONE</CheckValue><CheckValue>SEMI-RECUMBENT</CheckValue><CheckValue>SITTING</CheckValue><CheckValue>STANDING</CheckValue><CheckValue>SUPINE</CheckValue></RangeCheck><RangeCheck Comparator="IN" SoftHard="Soft" def:ItemOID="IT.VS.VSLOC"><CheckValue>BRACHIAL ARTERY</CheckValue><CheckValue>CAROTID ARTERY</CheckValue><CheckValue>CEREBRAL ARTERY</CheckValue><CheckValue>DORSALIS PEDIS ARTERY</CheckValue><CheckValue>FEMORAL ARTERY</CheckValue><CheckValue>RADIAL ARTERY</CheckValue></RangeCheck><RangeCheck Comparator="IN" SoftHard="Soft" def:ItemOID="IT.VS.VSLAT"><CheckValue>LEFT</CheckValue><CheckValue>RIGHT</CheckValue></RangeCheck></def:WhereClauseDef><def:WhereClauseDef OID="WC.VS.f296848d"><RangeCheck Comparator="EQ" SoftHard="Soft" def:ItemOID="IT.VS.VSTESTCD"><CheckValue>RESP</CheckValue></RangeCheck></def:WhereClauseDef><def:WhereClauseDef OID="WC.VS.ca4251ba"><RangeCheck Comparator="EQ" SoftHard="Soft" def:ItemOID="IT.VS.VSTESTCD"><CheckValue>BMI</CheckValue></RangeCheck></def:WhereClauseDef><def:WhereClauseDef OID="WC.VS.301c7ee3"><RangeCheck Comparator="EQ" SoftHard="Soft" def:ItemOID="IT.VS.VSTESTCD"><CheckValue>SYSBP</CheckValue></RangeCheck><RangeCheck Comparator="IN" SoftHard="Soft" def:ItemOID="IT.VS.VSPOS"><CheckValue>PRONE</CheckValue><CheckValue>SEMI-RECUMBENT</CheckValue><CheckValue>SITTING</CheckValue><CheckValue>STANDING</CheckValue><CheckValue>SUPINE</CheckValue></RangeCheck><RangeCheck Comparator="IN" SoftHard="Soft" def:ItemOID="IT.VS.VSLOC"><CheckValue>BRACHIAL ARTERY</CheckValue><CheckValue>CAROTID ARTERY</CheckValue><CheckValue>DORSALIS PEDIS ARTERY</CheckValue><CheckValue>FEMORAL ARTERY</CheckValue><CheckValue>FINGER</CheckValue><CheckValue>RADIAL ARTERY</CheckValue></RangeCheck><RangeCheck Comparator="IN" SoftHard="Soft" def:ItemOID="IT.VS.VSLAT"><CheckValue>LEFT</CheckValue><CheckValue>RIGHT</CheckValue></RangeCheck></def:WhereClauseDef><def:WhereClauseDef OID="WC.VS.714dfc07"><RangeCheck Comparator="EQ" SoftHard="Soft" def:ItemOID="IT.VS.VSTESTCD"><CheckValue>DIABP</CheckValue></RangeCheck><RangeCheck Comparator="IN" SoftHard="Soft" def:ItemOID="IT.VS.VSPOS"><CheckValue>PRONE</CheckValue><CheckValue>SEMI-RECUMBENT</CheckValue><CheckValue>SITTING</CheckValue><CheckValue>STANDING</CheckValue><CheckValue>SUPINE</CheckValue></RangeCheck><RangeCheck Comparator="IN" SoftHard="Soft" def:ItemOID="IT.VS.VSLOC"><CheckValue>BRACHIAL ARTERY</CheckValue><CheckValue>CAROTID ARTERY</CheckValue><CheckValue>DORSALIS PEDIS ARTERY</CheckValue><CheckValue>FEMORAL ARTERY</CheckValue><CheckValue>FINGER</CheckValue><CheckValue>RADIAL ARTERY</CheckValue></RangeCheck><RangeCheck Comparator="IN" SoftHard="Soft" def:ItemOID="IT.VS.VSLAT"><CheckValue>LEFT</CheckValue><CheckValue>RIGHT</CheckValue></RangeCheck></def:WhereClauseDef><def:WhereClauseDef OID="WC.VS.5a9c1ab0"><RangeCheck Comparator="EQ" SoftHard="Soft" def:ItemOID="IT.VS.VSTESTCD"><CheckValue>HR</CheckValue></RangeCheck><RangeCheck Comparator="IN" SoftHard="Soft" def:ItemOID="IT.VS.VSPOS"><CheckValue>PRONE</CheckValue><CheckValue>SEMI-RECUMBENT</CheckValue><CheckValue>SITTING</CheckValue><CheckValue>STANDING</CheckValue><CheckValue>SUPINE</CheckValue></RangeCheck><RangeCheck Comparator="IN" SoftHard="Soft" def:ItemOID="IT.VS.VSLOC"><CheckValue>BRACHIAL ARTERY</CheckValue><CheckValue>CAROTID ARTERY</CheckValue><CheckValue>CEREBRAL ARTERY</CheckValue><CheckValue>DORSALIS PEDIS ARTERY</CheckValue><CheckValue>FEMORAL ARTERY</CheckValue><CheckValue>RADIAL ARTERY</CheckValue></RangeCheck><RangeCheck Comparator="IN" SoftHard="Soft" def:ItemOID="IT.VS.VSLAT"><CheckValue>LEFT</CheckValue><CheckValue>RIGHT</CheckValue></RangeCheck></def:WhereClauseDef><def:WhereClauseDef OID="WC.EG.f60b99cb"><RangeCheck Comparator="EQ" SoftHard="Soft" def:ItemOID="IT.EG.EGTESTCD"><CheckValue>INTP</CheckValue></RangeCheck><RangeCheck Comparator="IN" SoftHard="Soft" def:ItemOID="IT.EG.EGEVAL"><CheckValue>ADJUDICATION COMMITTEE</CheckValue><CheckValue>INDEPENDENT ASSESSOR</CheckValue><CheckValue>INVESTIGATOR</CheckValue><CheckValue>VENDOR</CheckValue></RangeCheck></def:WhereClauseDef><def:WhereClauseDef OID="WC.EG.d30401ba"><RangeCheck Comparator="EQ" SoftHard="Soft" def:ItemOID="IT.EG.EGTESTCD"><CheckValue>AVCOND</CheckValue></RangeCheck><RangeCheck Comparator="IN" SoftHard="Soft" def:ItemOID="IT.EG.EGEVAL"><CheckValue>ADJUDICATION COMMITTEE</CheckValue><CheckValue>INDEPENDENT ASSESSOR</CheckValue><CheckValue>INVESTIGATOR</CheckValue><CheckValue>VENDOR</CheckValue></RangeCheck></def:WhereClauseDef><def:WhereClauseDef OID="WC.EG.0764363d"><RangeCheck Comparator="EQ" SoftHard="Soft" def:ItemOID="IT.EG.EGTESTCD"><CheckValue>AXISVOLT</CheckValue></RangeCheck><RangeCheck Comparator="IN" SoftHard="Soft" def:ItemOID="IT.EG.EGEVAL"><CheckValue>ADJUDICATION COMMITTEE</CheckValue><CheckValue>INDEPENDENT ASSESSOR</CheckValue><CheckValue>INVESTIGATOR</CheckValue><CheckValue>VENDOR</CheckValue></RangeCheck></def:WhereClauseDef><def:WhereClauseDef OID="WC.EG.c7ca2c0d"><RangeCheck Comparator="EQ" SoftHard="Soft" def:ItemOID="IT.EG.EGTESTCD"><CheckValue>CHYPTENL</CheckValue></RangeCheck><RangeCheck Comparator="IN" SoftHard="Soft" def:ItemOID="IT.EG.EGEVAL"><CheckValue>ADJUDICATION COMMITTEE</CheckValue><CheckValue>INDEPENDENT ASSESSOR</CheckValue><CheckValue>INVESTIGATOR</CheckValue><CheckValue>VENDOR</CheckValue></RangeCheck></def:WhereClauseDef><def:WhereClauseDef OID="WC.EG.0110957e"><RangeCheck Comparator="EQ" SoftHard="Soft" def:ItemOID="IT.EG.EGTESTCD"><CheckValue>TECHQUAL</CheckValue></RangeCheck><RangeCheck Comparator="IN" SoftHard="Soft" def:ItemOID="IT.EG.EGEVAL"><CheckValue>ADJUDICATION COMMITTEE</CheckValue><CheckValue>INDEPENDENT ASSESSOR</CheckValue><CheckValue>INVESTIGATOR</CheckValue><CheckValue>VENDOR</CheckValue></RangeCheck></def:WhereClauseDef><def:WhereClauseDef OID="WC.EG.7a2cbb17"><RangeCheck Comparator="EQ" SoftHard="Soft" def:ItemOID="IT.EG.EGTESTCD"><CheckValue>IVTIACD</CheckValue></RangeCheck><RangeCheck Comparator="IN" SoftHard="Soft" def:ItemOID="IT.EG.EGEVAL"><CheckValue>ADJUDICATION COMMITTEE</CheckValue><CheckValue>INDEPENDENT ASSESSOR</CheckValue><CheckValue>INVESTIGATOR</CheckValue><CheckValue>VENDOR</CheckValue></RangeCheck></def:WhereClauseDef><def:WhereClauseDef OID="WC.EG.c82f004b"><RangeCheck Comparator="EQ" SoftHard="Soft" def:ItemOID="IT.EG.EGTESTCD"><CheckValue>PACEMAKR</CheckValue></RangeCheck><RangeCheck Comparator="IN" SoftHard="Soft" def:ItemOID="IT.EG.EGEVAL"><CheckValue>ADJUDICATION COMMITTEE</CheckValue><CheckValue>INDEPENDENT ASSESSOR</CheckValue><CheckValue>INVESTIGATOR</CheckValue><CheckValue>VENDOR</CheckValue></RangeCheck></def:WhereClauseDef><def:WhereClauseDef OID="WC.EG.aaf51dd5"><RangeCheck Comparator="EQ" SoftHard="Soft" def:ItemOID="IT.EG.EGTESTCD"><CheckValue>RHYNOS</CheckValue></RangeCheck><RangeCheck Comparator="IN" SoftHard="Soft" def:ItemOID="IT.EG.EGEVAL"><CheckValue>ADJUDICATION COMMITTEE</CheckValue><CheckValue>INDEPENDENT ASSESSOR</CheckValue><CheckValue>INVESTIGATOR</CheckValue><CheckValue>VENDOR</CheckValue></RangeCheck></def:WhereClauseDef><def:WhereClauseDef OID="WC.EG.0a478649"><RangeCheck Comparator="EQ" SoftHard="Soft" def:ItemOID="IT.EG.EGTESTCD"><CheckValue>SNRARRY</CheckValue></RangeCheck><RangeCheck Comparator="IN" SoftHard="Soft" def:ItemOID="IT.EG.EGEVAL"><CheckValue>ADJUDICATION COMMITTEE</CheckValue><CheckValue>INDEPENDENT ASSESSOR</CheckValue><CheckValue>INVESTIGATOR</CheckValue><CheckValue>VENDOR</CheckValue></RangeCheck></def:WhereClauseDef><def:WhereClauseDef OID="WC.EG.44c12ce4"><RangeCheck Comparator="EQ" SoftHard="Soft" def:ItemOID="IT.EG.EGTESTCD"><CheckValue>SPRARRY</CheckValue></RangeCheck><RangeCheck Comparator="IN" SoftHard="Soft" def:ItemOID="IT.EG.EGEVAL"><CheckValue>ADJUDICATION COMMITTEE</CheckValue><CheckValue>INDEPENDENT ASSESSOR</CheckValue><CheckValue>INVESTIGATOR</CheckValue><CheckValue>VENDOR</CheckValue></RangeCheck></def:WhereClauseDef><def:WhereClauseDef OID="WC.EG.7c9fb72d"><RangeCheck Comparator="EQ" SoftHard="Soft" def:ItemOID="IT.EG.EGTESTCD"><CheckValue>SPRTARRY</CheckValue></RangeCheck><RangeCheck Comparator="IN" SoftHard="Soft" def:ItemOID="IT.EG.EGEVAL"><CheckValue>ADJUDICATION COMMITTEE</CheckValue><CheckValue>INDEPENDENT ASSESSOR</CheckValue><CheckValue>INVESTIGATOR</CheckValue><CheckValue>VENDOR</CheckValue></RangeCheck></def:WhereClauseDef><def:WhereClauseDef OID="WC.EG.3a146a53"><RangeCheck Comparator="EQ" SoftHard="Soft" def:ItemOID="IT.EG.EGTESTCD"><CheckValue>VTARRY</CheckValue></RangeCheck><RangeCheck Comparator="IN" SoftHard="Soft" def:ItemOID="IT.EG.EGEVAL"><CheckValue>ADJUDICATION COMMITTEE</CheckValue><CheckValue>INDEPENDENT ASSESSOR</CheckValue><CheckValue>INVESTIGATOR</CheckValue><CheckValue>VENDOR</CheckValue></RangeCheck></def:WhereClauseDef><def:WhereClauseDef OID="WC.EG.5571a969"><RangeCheck Comparator="EQ" SoftHard="Soft" def:ItemOID="IT.EG.EGTESTCD"><CheckValue>VTTARRY</CheckValue></RangeCheck><RangeCheck Comparator="IN" SoftHard="Soft" def:ItemOID="IT.EG.EGEVAL"><CheckValue>ADJUDICATION COMMITTEE</CheckValue><CheckValue>INDEPENDENT ASSESSOR</CheckValue><CheckValue>INVESTIGATOR</CheckValue><CheckValue>VENDOR</CheckValue></RangeCheck></def:WhereClauseDef><def:WhereClauseDef OID="WC.EG.13a9fd00"><RangeCheck Comparator="EQ" SoftHard="Soft" def:ItemOID="IT.EG.EGTESTCD"><CheckValue>PRAG</CheckValue></RangeCheck><RangeCheck Comparator="IN" SoftHard="Soft" def:ItemOID="IT.EG.EGEVAL"><CheckValue>ADJUDICATION COMMITTEE</CheckValue><CheckValue>INDEPENDENT ASSESSOR</CheckValue><CheckValue>INVESTIGATOR</CheckValue><CheckValue>VENDOR</CheckValue></RangeCheck></def:WhereClauseDef><def:WhereClauseDef OID="WC.EG.72304c3a"><RangeCheck Comparator="EQ" SoftHard="Soft" def:ItemOID="IT.EG.EGTESTCD"><CheckValue>QRSAG</CheckValue></RangeCheck><RangeCheck Comparator="IN" SoftHard="Soft" def:ItemOID="IT.EG.EGEVAL"><CheckValue>ADJUDICATION COMMITTEE</CheckValue><CheckValue>INDEPENDENT ASSESSOR</CheckValue><CheckValue>INVESTIGATOR</CheckValue><CheckValue>VENDOR</CheckValue></RangeCheck></def:WhereClauseDef><def:WhereClauseDef OID="WC.EG.6f155b1d"><RangeCheck Comparator="EQ" SoftHard="Soft" def:ItemOID="IT.EG.EGTESTCD"><CheckValue>QTAG</CheckValue></RangeCheck><RangeCheck Comparator="IN" SoftHard="Soft" def:ItemOID="IT.EG.EGEVAL"><CheckValue>ADJUDICATION COMMITTEE</CheckValue><CheckValue>INDEPENDENT ASSESSOR</CheckValue><CheckValue>INVESTIGATOR</CheckValue><CheckValue>VENDOR</CheckValue></RangeCheck></def:WhereClauseDef><def:WhereClauseDef OID="WC.EG.dff815c6"><RangeCheck Comparator="EQ" SoftHard="Soft" def:ItemOID="IT.EG.EGTESTCD"><CheckValue>QTCBAG</CheckValue></RangeCheck><RangeCheck Comparator="IN" SoftHard="Soft" def:ItemOID="IT.EG.EGEVAL"><CheckValue>ADJUDICATION COMMITTEE</CheckValue><CheckValue>INDEPENDENT ASSESSOR</CheckValue><CheckValue>INVESTIGATOR</CheckValue><CheckValue>VENDOR</CheckValue></RangeCheck></def:WhereClauseDef><def:WhereClauseDef OID="WC.EG.e967e1e7"><RangeCheck Comparator="EQ" SoftHard="Soft" def:ItemOID="IT.EG.EGTESTCD"><CheckValue>QTCFAG</CheckValue></RangeCheck><RangeCheck Comparator="IN" SoftHard="Soft" def:ItemOID="IT.EG.EGEVAL"><CheckValue>ADJUDICATION COMMITTEE</CheckValue><CheckValue>INDEPENDENT ASSESSOR</CheckValue><CheckValue>INVESTIGATOR</CheckValue><CheckValue>VENDOR</CheckValue></RangeCheck></def:WhereClauseDef><def:WhereClauseDef OID="WC.EG.64f26102"><RangeCheck Comparator="EQ" SoftHard="Soft" def:ItemOID="IT.EG.EGTESTCD"><CheckValue>RRAG</CheckValue></RangeCheck><RangeCheck Comparator="IN" SoftHard="Soft" def:ItemOID="IT.EG.EGEVAL"><CheckValue>ADJUDICATION COMMITTEE</CheckValue><CheckValue>INDEPENDENT ASSESSOR</CheckValue><CheckValue>INVESTIGATOR</CheckValue><CheckValue>VENDOR</CheckValue></RangeCheck></def:WhereClauseDef><def:WhereClauseDef OID="WC.EG.2ecbdce2"><RangeCheck Comparator="EQ" SoftHard="Soft" def:ItemOID="IT.EG.EGTESTCD"><CheckValue>EGHRMN</CheckValue></RangeCheck><RangeCheck Comparator="IN" SoftHard="Soft" def:ItemOID="IT.EG.EGEVAL"><CheckValue>ADJUDICATION COMMITTEE</CheckValue><CheckValue>INDEPENDENT ASSESSOR</CheckValue><CheckValue>INVESTIGATOR</CheckValue><CheckValue>VENDOR</CheckValue></RangeCheck></def:WhereClauseDef><def:WhereClauseDef OID="WC.EG.9ce29aa6"><RangeCheck Comparator="EQ" SoftHard="Soft" def:ItemOID="IT.EG.EGTESTCD"><CheckValue>QRS_AXIS</CheckValue></RangeCheck><RangeCheck Comparator="IN" SoftHard="Soft" def:ItemOID="IT.EG.EGEVAL"><CheckValue>ADJUDICATION COMMITTEE</CheckValue><CheckValue>INDEPENDENT ASSESSOR</CheckValue><CheckValue>INVESTIGATOR</CheckValue><CheckValue>VENDOR</CheckValue></RangeCheck></def:WhereClauseDef><def:WhereClauseDef OID="WC.EG.cec16291"><RangeCheck Comparator="EQ" SoftHard="Soft" def:ItemOID="IT.EG.EGTESTCD"><CheckValue>PRAG</CheckValue></RangeCheck><RangeCheck Comparator="IN" SoftHard="Soft" def:ItemOID="IT.EG.EGEVAL"><CheckValue>ADJUDICATION COMMITTEE</CheckValue><CheckValue>INDEPENDENT ASSESSOR</CheckValue><CheckValue>INVESTIGATOR</CheckValue><CheckValue>VENDOR</CheckValue></RangeCheck></def:WhereClauseDef><def:WhereClauseDef OID="WC.EG.5a1ab0f5"><RangeCheck Comparator="EQ" SoftHard="Soft" def:ItemOID="IT.EG.EGTESTCD"><CheckValue>QRSAG</CheckValue></RangeCheck><RangeCheck Comparator="IN" SoftHard="Soft" def:ItemOID="IT.EG.EGEVAL"><CheckValue>ADJUDICATION COMMITTEE</CheckValue><CheckValue>INDEPENDENT ASSESSOR</CheckValue><CheckValue>INVESTIGATOR</CheckValue><CheckValue>VENDOR</CheckValue></RangeCheck></def:WhereClauseDef><def:WhereClauseDef OID="WC.EG.ddb86367"><RangeCheck Comparator="EQ" SoftHard="Soft" def:ItemOID="IT.EG.EGTESTCD"><CheckValue>QTAG</CheckValue></RangeCheck><RangeCheck Comparator="IN" SoftHard="Soft" def:ItemOID="IT.EG.EGEVAL"><CheckValue>ADJUDICATION COMMITTEE</CheckValue><CheckValue>INDEPENDENT ASSESSOR</CheckValue><CheckValue>INVESTIGATOR</CheckValue><CheckValue>VENDOR</CheckValue></RangeCheck></def:WhereClauseDef><def:WhereClauseDef OID="WC.EG.e847517c"><RangeCheck Comparator="EQ" SoftHard="Soft" def:ItemOID="IT.EG.EGTESTCD"><CheckValue>QTCBAG</CheckValue></RangeCheck><RangeCheck Comparator="IN" SoftHard="Soft" def:ItemOID="IT.EG.EGEVAL"><CheckValue>ADJUDICATION COMMITTEE</CheckValue><CheckValue>INDEPENDENT ASSESSOR</CheckValue><CheckValue>INVESTIGATOR</CheckValue><CheckValue>VENDOR</CheckValue></RangeCheck></def:WhereClauseDef><def:WhereClauseDef OID="WC.EG.7f463007"><RangeCheck Comparator="EQ" SoftHard="Soft" def:ItemOID="IT.EG.EGTESTCD"><CheckValue>QTCFAG</CheckValue></RangeCheck><RangeCheck Comparator="IN" SoftHard="Soft" def:ItemOID="IT.EG.EGEVAL"><CheckValue>ADJUDICATION COMMITTEE</CheckValue><CheckValue>INDEPENDENT ASSESSOR</CheckValue><CheckValue>INVESTIGATOR</CheckValue><CheckValue>VENDOR</CheckValue></RangeCheck></def:WhereClauseDef><def:WhereClauseDef OID="WC.EG.3d1ba9c3"><RangeCheck Comparator="EQ" SoftHard="Soft" def:ItemOID="IT.EG.EGTESTCD"><CheckValue>RRAG</CheckValue></RangeCheck><RangeCheck Comparator="IN" SoftHard="Soft" def:ItemOID="IT.EG.EGEVAL"><CheckValue>ADJUDICATION COMMITTEE</CheckValue><CheckValue>INDEPENDENT ASSESSOR</CheckValue><CheckValue>INVESTIGATOR</CheckValue><CheckValue>VENDOR</CheckValue></RangeCheck></def:WhereClauseDef><def:WhereClauseDef OID="WC.EG.a40eb46d"><RangeCheck Comparator="EQ" SoftHard="Soft" def:ItemOID="IT.EG.EGTESTCD"><CheckValue>EGHRMN</CheckValue></RangeCheck><RangeCheck Comparator="IN" SoftHard="Soft" def:ItemOID="IT.EG.EGEVAL"><CheckValue>ADJUDICATION COMMITTEE</CheckValue><CheckValue>INDEPENDENT ASSESSOR</CheckValue><CheckValue>INVESTIGATOR</CheckValue><CheckValue>VENDOR</CheckValue></RangeCheck></def:WhereClauseDef><def:WhereClauseDef OID="WC.EG.02ebb46f"><RangeCheck Comparator="EQ" SoftHard="Soft" def:ItemOID="IT.EG.EGTESTCD"><CheckValue>QRS_AXIS</CheckValue></RangeCheck><RangeCheck Comparator="IN" SoftHard="Soft" def:ItemOID="IT.EG.EGEVAL"><CheckValue>ADJUDICATION COMMITTEE</CheckValue><CheckValue>INDEPENDENT ASSESSOR</CheckValue><CheckValue>INVESTIGATOR</CheckValue><CheckValue>VENDOR</CheckValue></RangeCheck></def:WhereClauseDef><def:WhereClauseDef OID="WC.LB.c192b07f"><RangeCheck Comparator="EQ" SoftHard="Soft" def:ItemOID="IT.LB.LBTESTCD"><CheckValue>HGB</CheckValue></RangeCheck><RangeCheck Comparator="EQ" SoftHard="Soft" def:ItemOID="IT.LB.LBSPEC"><CheckValue>BLOOD</CheckValue></RangeCheck><RangeCheck Comparator="EQ" SoftHard="Soft" def:ItemOID="IT.LB.LBMETHOD"><CheckValue>DIPSTICK MEASUREMENT METHOD</CheckValue></RangeCheck></def:WhereClauseDef><def:WhereClauseDef OID="WC.LB.82b97100"><RangeCheck Comparator="EQ" SoftHard="Soft" def:ItemOID="IT.LB.LBTESTCD"><CheckValue>HCT</CheckValue></RangeCheck><RangeCheck Comparator="EQ" SoftHard="Soft" def:ItemOID="IT.LB.LBSPEC"><CheckValue>BLOOD</CheckValue></RangeCheck></def:WhereClauseDef><def:WhereClauseDef OID="WC.LB.87582e25"><RangeCheck Comparator="EQ" SoftHard="Soft" def:ItemOID="IT.LB.LBTESTCD"><CheckValue>RBC</CheckValue></RangeCheck><RangeCheck Comparator="EQ" SoftHard="Soft" def:ItemOID="IT.LB.LBSPEC"><CheckValue>BLOOD</CheckValue></RangeCheck></def:WhereClauseDef><def:WhereClauseDef OID="WC.LB.95f4de22"><RangeCheck Comparator="EQ" SoftHard="Soft" def:ItemOID="IT.LB.LBTESTCD"><CheckValue>MCH</CheckValue></RangeCheck><RangeCheck Comparator="EQ" SoftHard="Soft" def:ItemOID="IT.LB.LBSPEC"><CheckValue>ERYTHROCYTES</CheckValue></RangeCheck></def:WhereClauseDef><def:WhereClauseDef OID="WC.LB.92bd1f17"><RangeCheck Comparator="EQ" SoftHard="Soft" def:ItemOID="IT.LB.LBTESTCD"><CheckValue>MCHC</CheckValue></RangeCheck><RangeCheck Comparator="EQ" SoftHard="Soft" def:ItemOID="IT.LB.LBSPEC"><CheckValue>ERYTHROCYTES</CheckValue></RangeCheck></def:WhereClauseDef><def:WhereClauseDef OID="WC.LB.24c0e2bc"><RangeCheck Comparator="EQ" SoftHard="Soft" def:ItemOID="IT.LB.LBTESTCD"><CheckValue>MCV</CheckValue></RangeCheck><RangeCheck Comparator="EQ" SoftHard="Soft" def:ItemOID="IT.LB.LBSPEC"><CheckValue>ERYTHROCYTES</CheckValue></RangeCheck></def:WhereClauseDef><def:WhereClauseDef OID="WC.LB.351df44b"><RangeCheck Comparator="EQ" SoftHard="Soft" def:ItemOID="IT.LB.LBTESTCD"><CheckValue>WBC</CheckValue></RangeCheck><RangeCheck Comparator="EQ" SoftHard="Soft" def:ItemOID="IT.LB.LBSPEC"><CheckValue>BLOOD</CheckValue></RangeCheck></def:WhereClauseDef><def:WhereClauseDef OID="WC.LB.5f2a0bab"><RangeCheck Comparator="EQ" SoftHard="Soft" def:ItemOID="IT.LB.LBTESTCD"><CheckValue>NEUTSG</CheckValue></RangeCheck><RangeCheck Comparator="EQ" SoftHard="Soft" def:ItemOID="IT.LB.LBSPEC"><CheckValue>BLOOD</CheckValue></RangeCheck></def:WhereClauseDef><def:WhereClauseDef OID="WC.LB.eea0ae49"><RangeCheck Comparator="EQ" SoftHard="Soft" def:ItemOID="IT.LB.LBTESTCD"><CheckValue>NEUTB</CheckValue></RangeCheck><RangeCheck Comparator="EQ" SoftHard="Soft" def:ItemOID="IT.LB.LBSPEC"><CheckValue>BLOOD</CheckValue></RangeCheck></def:WhereClauseDef><def:WhereClauseDef OID="WC.LB.550c7a01"><RangeCheck Comparator="EQ" SoftHard="Soft" def:ItemOID="IT.LB.LBTESTCD"><CheckValue>NEUT</CheckValue></RangeCheck><RangeCheck Comparator="EQ" SoftHard="Soft" def:ItemOID="IT.LB.LBSPEC"><CheckValue>BLOOD</CheckValue></RangeCheck></def:WhereClauseDef><def:WhereClauseDef OID="WC.LB.de4c119b"><RangeCheck Comparator="EQ" SoftHard="Soft" def:ItemOID="IT.LB.LBTESTCD"><CheckValue>MONO</CheckValue></RangeCheck><RangeCheck Comparator="EQ" SoftHard="Soft" def:ItemOID="IT.LB.LBSPEC"><CheckValue>BLOOD</CheckValue></RangeCheck></def:WhereClauseDef><def:WhereClauseDef OID="WC.LB.a5684311"><RangeCheck Comparator="EQ" SoftHard="Soft" def:ItemOID="IT.LB.LBTESTCD"><CheckValue>EOS</CheckValue></RangeCheck><RangeCheck Comparator="EQ" SoftHard="Soft" def:ItemOID="IT.LB.LBSPEC"><CheckValue>BLOOD</CheckValue></RangeCheck></def:WhereClauseDef><def:WhereClauseDef OID="WC.LB.7b86c15b"><RangeCheck Comparator="EQ" SoftHard="Soft" def:ItemOID="IT.LB.LBTESTCD"><CheckValue>BASO</CheckValue></RangeCheck><RangeCheck Comparator="EQ" SoftHard="Soft" def:ItemOID="IT.LB.LBSPEC"><CheckValue>BLOOD</CheckValue></RangeCheck></def:WhereClauseDef><def:WhereClauseDef OID="WC.LB.3a9d73e1"><RangeCheck Comparator="EQ" SoftHard="Soft" def:ItemOID="IT.LB.LBTESTCD"><CheckValue>PLAT</CheckValue></RangeCheck><RangeCheck Comparator="EQ" SoftHard="Soft" def:ItemOID="IT.LB.LBSPEC"><CheckValue>BLOOD</CheckValue></RangeCheck></def:WhereClauseDef><def:WhereClauseDef OID="WC.LB.ddc3319f"><RangeCheck Comparator="EQ" SoftHard="Soft" def:ItemOID="IT.LB.LBTESTCD"><CheckValue>MICROCY</CheckValue></RangeCheck><RangeCheck Comparator="EQ" SoftHard="Soft" def:ItemOID="IT.LB.LBSPEC"><CheckValue>URINE SEDIMENT</CheckValue></RangeCheck></def:WhereClauseDef><def:WhereClauseDef OID="WC.LB.116f85e4"><RangeCheck Comparator="EQ" SoftHard="Soft" def:ItemOID="IT.LB.LBTESTCD"><CheckValue>MACROCY</CheckValue></RangeCheck><RangeCheck Comparator="EQ" SoftHard="Soft" def:ItemOID="IT.LB.LBSPEC"><CheckValue>URINE SEDIMENT</CheckValue></RangeCheck></def:WhereClauseDef><def:WhereClauseDef OID="WC.LB.84ceb0ad"><RangeCheck Comparator="EQ" SoftHard="Soft" def:ItemOID="IT.LB.LBTESTCD"><CheckValue>ANISO</CheckValue></RangeCheck><RangeCheck Comparator="EQ" SoftHard="Soft" def:ItemOID="IT.LB.LBSPEC"><CheckValue>BLOOD</CheckValue></RangeCheck></def:WhereClauseDef><def:WhereClauseDef OID="WC.LB.b622c728"><RangeCheck Comparator="EQ" SoftHard="Soft" def:ItemOID="IT.LB.LBTESTCD"><CheckValue>POIKILO</CheckValue></RangeCheck><RangeCheck Comparator="EQ" SoftHard="Soft" def:ItemOID="IT.LB.LBSPEC"><CheckValue>BLOOD</CheckValue></RangeCheck></def:WhereClauseDef><def:WhereClauseDef OID="WC.LB.87b1b367"><RangeCheck Comparator="EQ" SoftHard="Soft" def:ItemOID="IT.LB.LBTESTCD"><CheckValue>POLYCHR</CheckValue></RangeCheck><RangeCheck Comparator="EQ" SoftHard="Soft" def:ItemOID="IT.LB.LBSPEC"><CheckValue>BLOOD</CheckValue></RangeCheck></def:WhereClauseDef><def:WhereClauseDef OID="WC.LB.5412b298"><RangeCheck Comparator="EQ" SoftHard="Soft" def:ItemOID="IT.LB.LBTESTCD"><CheckValue>ALT</CheckValue></RangeCheck><RangeCheck Comparator="EQ" SoftHard="Soft" def:ItemOID="IT.LB.LBSPEC"><CheckValue>SERUM OR PLASMA</CheckValue></RangeCheck></def:WhereClauseDef><def:WhereClauseDef OID="WC.LB.e42a3c09"><RangeCheck Comparator="EQ" SoftHard="Soft" def:ItemOID="IT.LB.LBTESTCD"><CheckValue>ALB</CheckValue></RangeCheck><RangeCheck Comparator="EQ" SoftHard="Soft" def:ItemOID="IT.LB.LBSPEC"><CheckValue>URINE</CheckValue></RangeCheck></def:WhereClauseDef><def:WhereClauseDef OID="WC.LB.cdac7fcc"><RangeCheck Comparator="EQ" SoftHard="Soft" def:ItemOID="IT.LB.LBTESTCD"><CheckValue>ALP</CheckValue></RangeCheck><RangeCheck Comparator="EQ" SoftHard="Soft" def:ItemOID="IT.LB.LBSPEC"><CheckValue>SERUM OR PLASMA</CheckValue></RangeCheck></def:WhereClauseDef><def:WhereClauseDef OID="WC.LB.b9d7ddba"><RangeCheck Comparator="EQ" SoftHard="Soft" def:ItemOID="IT.LB.LBTESTCD"><CheckValue>AST</CheckValue></RangeCheck><RangeCheck Comparator="EQ" SoftHard="Soft" def:ItemOID="IT.LB.LBSPEC"><CheckValue>SERUM OR PLASMA</CheckValue></RangeCheck></def:WhereClauseDef><def:WhereClauseDef OID="WC.LB.969c1a6d"><RangeCheck Comparator="EQ" SoftHard="Soft" def:ItemOID="IT.LB.LBTESTCD"><CheckValue>CREAT</CheckValue></RangeCheck><RangeCheck Comparator="EQ" SoftHard="Soft" def:ItemOID="IT.LB.LBSPEC"><CheckValue>URINE</CheckValue></RangeCheck></def:WhereClauseDef><def:WhereClauseDef OID="WC.LB.7ce691fd"><RangeCheck Comparator="EQ" SoftHard="Soft" def:ItemOID="IT.LB.LBTESTCD"><CheckValue>K</CheckValue></RangeCheck><RangeCheck Comparator="EQ" SoftHard="Soft" def:ItemOID="IT.LB.LBSPEC"><CheckValue>URINE</CheckValue></RangeCheck></def:WhereClauseDef><def:WhereClauseDef OID="WC.LB.88601b52"><RangeCheck Comparator="EQ" SoftHard="Soft" def:ItemOID="IT.LB.LBTESTCD"><CheckValue>SODIUM</CheckValue></RangeCheck><RangeCheck Comparator="EQ" SoftHard="Soft" def:ItemOID="IT.LB.LBSPEC"><CheckValue>URINE</CheckValue></RangeCheck></def:WhereClauseDef><def:WhereClauseDef OID="WC.LB.42392cd1"><RangeCheck Comparator="EQ" SoftHard="Soft" def:ItemOID="IT.LB.LBTESTCD"><CheckValue>UREAN</CheckValue></RangeCheck><RangeCheck Comparator="EQ" SoftHard="Soft" def:ItemOID="IT.LB.LBSPEC"><CheckValue>SERUM OR PLASMA</CheckValue></RangeCheck></def:WhereClauseDef><def:WhereClauseDef OID="WC.LB.9279ec22"><RangeCheck Comparator="EQ" SoftHard="Soft" def:ItemOID="IT.LB.LBTESTCD"><CheckValue>BICARB</CheckValue></RangeCheck><RangeCheck Comparator="EQ" SoftHard="Soft" def:ItemOID="IT.LB.LBSPEC"><CheckValue>BLOOD</CheckValue></RangeCheck></def:WhereClauseDef><def:WhereClauseDef OID="WC.LB.8b779a3b"><RangeCheck Comparator="EQ" SoftHard="Soft" def:ItemOID="IT.LB.LBTESTCD"><CheckValue>CL</CheckValue></RangeCheck><RangeCheck Comparator="EQ" SoftHard="Soft" def:ItemOID="IT.LB.LBSPEC"><CheckValue>SERUM OR PLASMA</CheckValue></RangeCheck></def:WhereClauseDef><def:WhereClauseDef OID="WC.LB.cfe14422"><RangeCheck Comparator="EQ" SoftHard="Soft" def:ItemOID="IT.LB.LBTESTCD"><CheckValue>BILI</CheckValue></RangeCheck><RangeCheck Comparator="EQ" SoftHard="Soft" def:ItemOID="IT.LB.LBSPEC"><CheckValue>URINE</CheckValue></RangeCheck></def:WhereClauseDef><def:WhereClauseDef OID="WC.LB.8285c765"><RangeCheck Comparator="EQ" SoftHard="Soft" def:ItemOID="IT.LB.LBTESTCD"><CheckValue>GGT</CheckValue></RangeCheck><RangeCheck Comparator="EQ" SoftHard="Soft" def:ItemOID="IT.LB.LBSPEC"><CheckValue>SERUM OR PLASMA</CheckValue></RangeCheck></def:WhereClauseDef><def:WhereClauseDef OID="WC.LB.37c7b4ba"><RangeCheck Comparator="EQ" SoftHard="Soft" def:ItemOID="IT.LB.LBTESTCD"><CheckValue>URATE</CheckValue></RangeCheck><RangeCheck Comparator="EQ" SoftHard="Soft" def:ItemOID="IT.LB.LBSPEC"><CheckValue>SERUM OR PLASMA</CheckValue></RangeCheck></def:WhereClauseDef><def:WhereClauseDef OID="WC.LB.e4e81dc5"><RangeCheck Comparator="EQ" SoftHard="Soft" def:ItemOID="IT.LB.LBTESTCD"><CheckValue>PHOS</CheckValue></RangeCheck><RangeCheck Comparator="EQ" SoftHard="Soft" def:ItemOID="IT.LB.LBSPEC"><CheckValue>SERUM OR PLASMA</CheckValue></RangeCheck></def:WhereClauseDef><def:WhereClauseDef OID="WC.LB.470def9b"><RangeCheck Comparator="EQ" SoftHard="Soft" def:ItemOID="IT.LB.LBTESTCD"><CheckValue>CA</CheckValue></RangeCheck><RangeCheck Comparator="EQ" SoftHard="Soft" def:ItemOID="IT.LB.LBSPEC"><CheckValue>SERUM OR PLASMA</CheckValue></RangeCheck></def:WhereClauseDef><def:WhereClauseDef OID="WC.LB.c891c160"><RangeCheck Comparator="EQ" SoftHard="Soft" def:ItemOID="IT.LB.LBTESTCD"><CheckValue>GLUC</CheckValue></RangeCheck><RangeCheck Comparator="EQ" SoftHard="Soft" def:ItemOID="IT.LB.LBSPEC"><CheckValue>URINE</CheckValue></RangeCheck></def:WhereClauseDef><def:WhereClauseDef OID="WC.LB.abcfd20c"><RangeCheck Comparator="EQ" SoftHard="Soft" def:ItemOID="IT.LB.LBTESTCD"><CheckValue>PROT</CheckValue></RangeCheck><RangeCheck Comparator="EQ" SoftHard="Soft" def:ItemOID="IT.LB.LBSPEC"><CheckValue>URINE</CheckValue></RangeCheck></def:WhereClauseDef><def:WhereClauseDef OID="WC.LB.5a1bca67"><RangeCheck Comparator="EQ" SoftHard="Soft" def:ItemOID="IT.LB.LBTESTCD"><CheckValue>CHOL</CheckValue></RangeCheck><RangeCheck Comparator="EQ" SoftHard="Soft" def:ItemOID="IT.LB.LBSPEC"><CheckValue>SERUM OR PLASMA</CheckValue></RangeCheck></def:WhereClauseDef><def:WhereClauseDef OID="WC.LB.4226ee02"><RangeCheck Comparator="EQ" SoftHard="Soft" def:ItemOID="IT.LB.LBTESTCD"><CheckValue>T3UP</CheckValue></RangeCheck><RangeCheck Comparator="EQ" SoftHard="Soft" def:ItemOID="IT.LB.LBSPEC"><CheckValue>SERUM OR PLASMA</CheckValue></RangeCheck></def:WhereClauseDef><def:WhereClauseDef OID="WC.LB.df33e99e"><RangeCheck Comparator="EQ" SoftHard="Soft" def:ItemOID="IT.LB.LBTESTCD"><CheckValue>T3</CheckValue></RangeCheck><RangeCheck Comparator="EQ" SoftHard="Soft" def:ItemOID="IT.LB.LBSPEC"><CheckValue>SERUM OR PLASMA</CheckValue></RangeCheck></def:WhereClauseDef><def:WhereClauseDef OID="WC.LB.30f3d8b3"><RangeCheck Comparator="EQ" SoftHard="Soft" def:ItemOID="IT.LB.LBTESTCD"><CheckValue>T4FR</CheckValue></RangeCheck><RangeCheck Comparator="EQ" SoftHard="Soft" def:ItemOID="IT.LB.LBSPEC"><CheckValue>SERUM OR PLASMA</CheckValue></RangeCheck></def:WhereClauseDef><def:WhereClauseDef OID="WC.LB.f59f4529"><RangeCheck Comparator="EQ" SoftHard="Soft" def:ItemOID="IT.LB.LBTESTCD"><CheckValue>T4FRIDX</CheckValue></RangeCheck><RangeCheck Comparator="EQ" SoftHard="Soft" def:ItemOID="IT.LB.LBSPEC"><CheckValue>SERUM OR PLASMA</CheckValue></RangeCheck></def:WhereClauseDef><def:WhereClauseDef OID="WC.LB.c54221c6"><RangeCheck Comparator="EQ" SoftHard="Soft" def:ItemOID="IT.LB.LBTESTCD"><CheckValue>TSH</CheckValue></RangeCheck><RangeCheck Comparator="EQ" SoftHard="Soft" def:ItemOID="IT.LB.LBSPEC"><CheckValue>SERUM OR PLASMA</CheckValue></RangeCheck></def:WhereClauseDef><def:WhereClauseDef OID="WC.LB.cb02cad8"><RangeCheck Comparator="EQ" SoftHard="Soft" def:ItemOID="IT.LB.LBTESTCD"><CheckValue>VITB9</CheckValue></RangeCheck><RangeCheck Comparator="EQ" SoftHard="Soft" def:ItemOID="IT.LB.LBSPEC"><CheckValue>SERUM OR PLASMA</CheckValue></RangeCheck></def:WhereClauseDef><def:WhereClauseDef OID="WC.LB.d0f49556"><RangeCheck Comparator="EQ" SoftHard="Soft" def:ItemOID="IT.LB.LBTESTCD"><CheckValue>VITB12</CheckValue></RangeCheck><RangeCheck Comparator="EQ" SoftHard="Soft" def:ItemOID="IT.LB.LBSPEC"><CheckValue>SERUM OR PLASMA</CheckValue></RangeCheck></def:WhereClauseDef><def:WhereClauseDef OID="WC.LB.4987b41e"><RangeCheck Comparator="EQ" SoftHard="Soft" def:ItemOID="IT.LB.LBTESTCD"><CheckValue>COLOR</CheckValue></RangeCheck><RangeCheck Comparator="EQ" SoftHard="Soft" def:ItemOID="IT.LB.LBSPEC"><CheckValue>URINE</CheckValue></RangeCheck></def:WhereClauseDef><def:WhereClauseDef OID="WC.LB.cbf789d8"><RangeCheck Comparator="EQ" SoftHard="Soft" def:ItemOID="IT.LB.LBTESTCD"><CheckValue>SPGRAV</CheckValue></RangeCheck><RangeCheck Comparator="EQ" SoftHard="Soft" def:ItemOID="IT.LB.LBSPEC"><CheckValue>URINE</CheckValue></RangeCheck></def:WhereClauseDef><def:WhereClauseDef OID="WC.LB.3239d7a3"><RangeCheck Comparator="EQ" SoftHard="Soft" def:ItemOID="IT.LB.LBTESTCD"><CheckValue>KETONES</CheckValue></RangeCheck><RangeCheck Comparator="EQ" SoftHard="Soft" def:ItemOID="IT.LB.LBSPEC"><CheckValue>URINE</CheckValue></RangeCheck></def:WhereClauseDef><def:WhereClauseDef OID="WC.LB.59366afe"><RangeCheck Comparator="EQ" SoftHard="Soft" def:ItemOID="IT.LB.LBTESTCD"><CheckValue>UROBIL</CheckValue></RangeCheck><RangeCheck Comparator="EQ" SoftHard="Soft" def:ItemOID="IT.LB.LBSPEC"><CheckValue>URINE</CheckValue></RangeCheck></def:WhereClauseDef><def:WhereClauseDef OID="WC.LB.3adc4566"><RangeCheck Comparator="EQ" SoftHard="Soft" def:ItemOID="IT.LB.LBTESTCD"><CheckValue>OCCBLD</CheckValue></RangeCheck><RangeCheck Comparator="EQ" SoftHard="Soft" def:ItemOID="IT.LB.LBSPEC"><CheckValue>STOOL</CheckValue></RangeCheck></def:WhereClauseDef><def:WhereClauseDef OID="WC.LB.59074de1"><RangeCheck Comparator="EQ" SoftHard="Soft" def:ItemOID="IT.LB.LBTESTCD"><CheckValue>NITRITE</CheckValue></RangeCheck><RangeCheck Comparator="EQ" SoftHard="Soft" def:ItemOID="IT.LB.LBSPEC"><CheckValue>URINE</CheckValue></RangeCheck></def:WhereClauseDef><def:WhereClauseDef OID="WC.LB.c1765eee"><RangeCheck Comparator="EQ" SoftHard="Soft" def:ItemOID="IT.LB.LBTESTCD"><CheckValue>HBA1C</CheckValue></RangeCheck><RangeCheck Comparator="EQ" SoftHard="Soft" def:ItemOID="IT.LB.LBSPEC"><CheckValue>BLOOD</CheckValue></RangeCheck></def:WhereClauseDef><def:WhereClauseDef OID="WC.LB.dd459ec6"><RangeCheck Comparator="EQ" SoftHard="Soft" def:ItemOID="IT.LB.LBTESTCD"><CheckValue>HBA1CHGB</CheckValue></RangeCheck><RangeCheck Comparator="EQ" SoftHard="Soft" def:ItemOID="IT.LB.LBSPEC"><CheckValue>BLOOD</CheckValue></RangeCheck></def:WhereClauseDef><def:WhereClauseDef OID="WC.LB.e9a1c33d"><RangeCheck Comparator="EQ" SoftHard="Soft" def:ItemOID="IT.LB.LBTESTCD"><CheckValue>HGB</CheckValue></RangeCheck><RangeCheck Comparator="EQ" SoftHard="Soft" def:ItemOID="IT.LB.LBSPEC"><CheckValue>BLOOD</CheckValue></RangeCheck><RangeCheck Comparator="EQ" SoftHard="Soft" def:ItemOID="IT.LB.LBMETHOD"><CheckValue>DIPSTICK MEASUREMENT METHOD</CheckValue></RangeCheck></def:WhereClauseDef><def:WhereClauseDef OID="WC.LB.7f0975c7"><RangeCheck Comparator="EQ" SoftHard="Soft" def:ItemOID="IT.LB.LBTESTCD"><CheckValue>HCT</CheckValue></RangeCheck><RangeCheck Comparator="EQ" SoftHard="Soft" def:ItemOID="IT.LB.LBSPEC"><CheckValue>BLOOD</CheckValue></RangeCheck></def:WhereClauseDef><def:WhereClauseDef OID="WC.LB.f7f1de35"><RangeCheck Comparator="EQ" SoftHard="Soft" def:ItemOID="IT.LB.LBTESTCD"><CheckValue>RBC</CheckValue></RangeCheck><RangeCheck Comparator="EQ" SoftHard="Soft" def:ItemOID="IT.LB.LBSPEC"><CheckValue>BLOOD</CheckValue></RangeCheck></def:WhereClauseDef><def:WhereClauseDef OID="WC.LB.c32acb17"><RangeCheck Comparator="EQ" SoftHard="Soft" def:ItemOID="IT.LB.LBTESTCD"><CheckValue>MCH</CheckValue></RangeCheck><RangeCheck Comparator="EQ" SoftHard="Soft" def:ItemOID="IT.LB.LBSPEC"><CheckValue>ERYTHROCYTES</CheckValue></RangeCheck></def:WhereClauseDef><def:WhereClauseDef OID="WC.LB.eb7f048a"><RangeCheck Comparator="EQ" SoftHard="Soft" def:ItemOID="IT.LB.LBTESTCD"><CheckValue>MCHC</CheckValue></RangeCheck><RangeCheck Comparator="EQ" SoftHard="Soft" def:ItemOID="IT.LB.LBSPEC"><CheckValue>ERYTHROCYTES</CheckValue></RangeCheck></def:WhereClauseDef><def:WhereClauseDef OID="WC.LB.e881d4b5"><RangeCheck Comparator="EQ" SoftHard="Soft" def:ItemOID="IT.LB.LBTESTCD"><CheckValue>MCV</CheckValue></RangeCheck><RangeCheck Comparator="EQ" SoftHard="Soft" def:ItemOID="IT.LB.LBSPEC"><CheckValue>ERYTHROCYTES</CheckValue></RangeCheck></def:WhereClauseDef><def:WhereClauseDef OID="WC.LB.41785be6"><RangeCheck Comparator="EQ" SoftHard="Soft" def:ItemOID="IT.LB.LBTESTCD"><CheckValue>WBC</CheckValue></RangeCheck><RangeCheck Comparator="EQ" SoftHard="Soft" def:ItemOID="IT.LB.LBSPEC"><CheckValue>BLOOD</CheckValue></RangeCheck></def:WhereClauseDef><def:WhereClauseDef OID="WC.LB.a68e5eaa"><RangeCheck Comparator="EQ" SoftHard="Soft" def:ItemOID="IT.LB.LBTESTCD"><CheckValue>NEUTSG</CheckValue></RangeCheck><RangeCheck Comparator="EQ" SoftHard="Soft" def:ItemOID="IT.LB.LBSPEC"><CheckValue>BLOOD</CheckValue></RangeCheck></def:WhereClauseDef><def:WhereClauseDef OID="WC.LB.aad6dbd6"><RangeCheck Comparator="EQ" SoftHard="Soft" def:ItemOID="IT.LB.LBTESTCD"><CheckValue>NEUTB</CheckValue></RangeCheck><RangeCheck Comparator="EQ" SoftHard="Soft" def:ItemOID="IT.LB.LBSPEC"><CheckValue>BLOOD</CheckValue></RangeCheck></def:WhereClauseDef><def:WhereClauseDef OID="WC.LB.d13d6578"><RangeCheck Comparator="EQ" SoftHard="Soft" def:ItemOID="IT.LB.LBTESTCD"><CheckValue>NEUT</CheckValue></RangeCheck><RangeCheck Comparator="EQ" SoftHard="Soft" def:ItemOID="IT.LB.LBSPEC"><CheckValue>BLOOD</CheckValue></RangeCheck></def:WhereClauseDef><def:WhereClauseDef OID="WC.LB.00e6d228"><RangeCheck Comparator="EQ" SoftHard="Soft" def:ItemOID="IT.LB.LBTESTCD"><CheckValue>MONO</CheckValue></RangeCheck><RangeCheck Comparator="EQ" SoftHard="Soft" def:ItemOID="IT.LB.LBSPEC"><CheckValue>BLOOD</CheckValue></RangeCheck></def:WhereClauseDef><def:WhereClauseDef OID="WC.LB.ef654de1"><RangeCheck Comparator="EQ" SoftHard="Soft" def:ItemOID="IT.LB.LBTESTCD"><CheckValue>EOS</CheckValue></RangeCheck><RangeCheck Comparator="EQ" SoftHard="Soft" def:ItemOID="IT.LB.LBSPEC"><CheckValue>BLOOD</CheckValue></RangeCheck></def:WhereClauseDef><def:WhereClauseDef OID="WC.LB.b6fa6e8d"><RangeCheck Comparator="EQ" SoftHard="Soft" def:ItemOID="IT.LB.LBTESTCD"><CheckValue>BASO</CheckValue></RangeCheck><RangeCheck Comparator="EQ" SoftHard="Soft" def:ItemOID="IT.LB.LBSPEC"><CheckValue>BLOOD</CheckValue></RangeCheck></def:WhereClauseDef><def:WhereClauseDef OID="WC.LB.90eedf3b"><RangeCheck Comparator="EQ" SoftHard="Soft" def:ItemOID="IT.LB.LBTESTCD"><CheckValue>PLAT</CheckValue></RangeCheck><RangeCheck Comparator="EQ" SoftHard="Soft" def:ItemOID="IT.LB.LBSPEC"><CheckValue>BLOOD</CheckValue></RangeCheck></def:WhereClauseDef><def:WhereClauseDef OID="WC.LB.8914eb45"><RangeCheck Comparator="EQ" SoftHard="Soft" def:ItemOID="IT.LB.LBTESTCD"><CheckValue>ALT</CheckValue></RangeCheck><RangeCheck Comparator="EQ" SoftHard="Soft" def:ItemOID="IT.LB.LBSPEC"><CheckValue>SERUM OR PLASMA</CheckValue></RangeCheck></def:WhereClauseDef><def:WhereClauseDef OID="WC.LB.6660e11c"><RangeCheck Comparator="EQ" SoftHard="Soft" def:ItemOID="IT.LB.LBTESTCD"><CheckValue>ALP</CheckValue></RangeCheck><RangeCheck Comparator="EQ" SoftHard="Soft" def:ItemOID="IT.LB.LBSPEC"><CheckValue>SERUM OR PLASMA</CheckValue></RangeCheck></def:WhereClauseDef><def:WhereClauseDef OID="WC.LB.37e389df"><RangeCheck Comparator="EQ" SoftHard="Soft" def:ItemOID="IT.LB.LBTESTCD"><CheckValue>AST</CheckValue></RangeCheck><RangeCheck Comparator="EQ" SoftHard="Soft" def:ItemOID="IT.LB.LBSPEC"><CheckValue>SERUM OR PLASMA</CheckValue></RangeCheck></def:WhereClauseDef><def:WhereClauseDef OID="WC.LB.549f5ae4"><RangeCheck Comparator="EQ" SoftHard="Soft" def:ItemOID="IT.LB.LBTESTCD"><CheckValue>CREAT</CheckValue></RangeCheck><RangeCheck Comparator="EQ" SoftHard="Soft" def:ItemOID="IT.LB.LBSPEC"><CheckValue>URINE</CheckValue></RangeCheck></def:WhereClauseDef><def:WhereClauseDef OID="WC.LB.ee634517"><RangeCheck Comparator="EQ" SoftHard="Soft" def:ItemOID="IT.LB.LBTESTCD"><CheckValue>K</CheckValue></RangeCheck><RangeCheck Comparator="EQ" SoftHard="Soft" def:ItemOID="IT.LB.LBSPEC"><CheckValue>URINE</CheckValue></RangeCheck></def:WhereClauseDef><def:WhereClauseDef OID="WC.LB.07a8daa1"><RangeCheck Comparator="EQ" SoftHard="Soft" def:ItemOID="IT.LB.LBTESTCD"><CheckValue>SODIUM</CheckValue></RangeCheck><RangeCheck Comparator="EQ" SoftHard="Soft" def:ItemOID="IT.LB.LBSPEC"><CheckValue>URINE</CheckValue></RangeCheck></def:WhereClauseDef><def:WhereClauseDef OID="WC.LB.91d1c3d5"><RangeCheck Comparator="EQ" SoftHard="Soft" def:ItemOID="IT.LB.LBTESTCD"><CheckValue>UREAN</CheckValue></RangeCheck><RangeCheck Comparator="EQ" SoftHard="Soft" def:ItemOID="IT.LB.LBSPEC"><CheckValue>SERUM OR PLASMA</CheckValue></RangeCheck></def:WhereClauseDef><def:WhereClauseDef OID="WC.LB.9df0845c"><RangeCheck Comparator="EQ" SoftHard="Soft" def:ItemOID="IT.LB.LBTESTCD"><CheckValue>BICARB</CheckValue></RangeCheck><RangeCheck Comparator="EQ" SoftHard="Soft" def:ItemOID="IT.LB.LBSPEC"><CheckValue>BLOOD</CheckValue></RangeCheck></def:WhereClauseDef><def:WhereClauseDef OID="WC.LB.cc8b6004"><RangeCheck Comparator="EQ" SoftHard="Soft" def:ItemOID="IT.LB.LBTESTCD"><CheckValue>CL</CheckValue></RangeCheck><RangeCheck Comparator="EQ" SoftHard="Soft" def:ItemOID="IT.LB.LBSPEC"><CheckValue>SERUM OR PLASMA</CheckValue></RangeCheck></def:WhereClauseDef><def:WhereClauseDef OID="WC.LB.3c564f36"><RangeCheck Comparator="EQ" SoftHard="Soft" def:ItemOID="IT.LB.LBTESTCD"><CheckValue>GGT</CheckValue></RangeCheck><RangeCheck Comparator="EQ" SoftHard="Soft" def:ItemOID="IT.LB.LBSPEC"><CheckValue>SERUM OR PLASMA</CheckValue></RangeCheck></def:WhereClauseDef><def:WhereClauseDef OID="WC.LB.13fbb1a5"><RangeCheck Comparator="EQ" SoftHard="Soft" def:ItemOID="IT.LB.LBTESTCD"><CheckValue>URATE</CheckValue></RangeCheck><RangeCheck Comparator="EQ" SoftHard="Soft" def:ItemOID="IT.LB.LBSPEC"><CheckValue>SERUM OR PLASMA</CheckValue></RangeCheck></def:WhereClauseDef><def:WhereClauseDef OID="WC.LB.3749493c"><RangeCheck Comparator="EQ" SoftHard="Soft" def:ItemOID="IT.LB.LBTESTCD"><CheckValue>PHOS</CheckValue></RangeCheck><RangeCheck Comparator="EQ" SoftHard="Soft" def:ItemOID="IT.LB.LBSPEC"><CheckValue>SERUM OR PLASMA</CheckValue></RangeCheck></def:WhereClauseDef><def:WhereClauseDef OID="WC.LB.38f9f39d"><RangeCheck Comparator="EQ" SoftHard="Soft" def:ItemOID="IT.LB.LBTESTCD"><CheckValue>CA</CheckValue></RangeCheck><RangeCheck Comparator="EQ" SoftHard="Soft" def:ItemOID="IT.LB.LBSPEC"><CheckValue>SERUM OR PLASMA</CheckValue></RangeCheck></def:WhereClauseDef><def:WhereClauseDef OID="WC.LB.516f3664"><RangeCheck Comparator="EQ" SoftHard="Soft" def:ItemOID="IT.LB.LBTESTCD"><CheckValue>CHOL</CheckValue></RangeCheck><RangeCheck Comparator="EQ" SoftHard="Soft" def:ItemOID="IT.LB.LBSPEC"><CheckValue>SERUM OR PLASMA</CheckValue></RangeCheck></def:WhereClauseDef><def:WhereClauseDef OID="WC.LB.dcbcbe57"><RangeCheck Comparator="EQ" SoftHard="Soft" def:ItemOID="IT.LB.LBTESTCD"><CheckValue>T3UP</CheckValue></RangeCheck><RangeCheck Comparator="EQ" SoftHard="Soft" def:ItemOID="IT.LB.LBSPEC"><CheckValue>SERUM OR PLASMA</CheckValue></RangeCheck></def:WhereClauseDef><def:WhereClauseDef OID="WC.LB.b7b215a1"><RangeCheck Comparator="EQ" SoftHard="Soft" def:ItemOID="IT.LB.LBTESTCD"><CheckValue>T3</CheckValue></RangeCheck><RangeCheck Comparator="EQ" SoftHard="Soft" def:ItemOID="IT.LB.LBSPEC"><CheckValue>SERUM OR PLASMA</CheckValue></RangeCheck></def:WhereClauseDef><def:WhereClauseDef OID="WC.LB.0f071538"><RangeCheck Comparator="EQ" SoftHard="Soft" def:ItemOID="IT.LB.LBTESTCD"><CheckValue>T4FR</CheckValue></RangeCheck><RangeCheck Comparator="EQ" SoftHard="Soft" def:ItemOID="IT.LB.LBSPEC"><CheckValue>SERUM OR PLASMA</CheckValue></RangeCheck></def:WhereClauseDef><def:WhereClauseDef OID="WC.LB.258e657c"><RangeCheck Comparator="EQ" SoftHard="Soft" def:ItemOID="IT.LB.LBTESTCD"><CheckValue>T4FRIDX</CheckValue></RangeCheck><RangeCheck Comparator="EQ" SoftHard="Soft" def:ItemOID="IT.LB.LBSPEC"><CheckValue>SERUM OR PLASMA</CheckValue></RangeCheck></def:WhereClauseDef><def:WhereClauseDef OID="WC.LB.d675561c"><RangeCheck Comparator="EQ" SoftHard="Soft" def:ItemOID="IT.LB.LBTESTCD"><CheckValue>TSH</CheckValue></RangeCheck><RangeCheck Comparator="EQ" SoftHard="Soft" def:ItemOID="IT.LB.LBSPEC"><CheckValue>SERUM OR PLASMA</CheckValue></RangeCheck></def:WhereClauseDef><def:WhereClauseDef OID="WC.LB.e81938d6"><RangeCheck Comparator="EQ" SoftHard="Soft" def:ItemOID="IT.LB.LBTESTCD"><CheckValue>VITB9</CheckValue></RangeCheck><RangeCheck Comparator="EQ" SoftHard="Soft" def:ItemOID="IT.LB.LBSPEC"><CheckValue>SERUM OR PLASMA</CheckValue></RangeCheck></def:WhereClauseDef><def:WhereClauseDef OID="WC.LB.54dda2d1"><RangeCheck Comparator="EQ" SoftHard="Soft" def:ItemOID="IT.LB.LBTESTCD"><CheckValue>VITB12</CheckValue></RangeCheck><RangeCheck Comparator="EQ" SoftHard="Soft" def:ItemOID="IT.LB.LBSPEC"><CheckValue>SERUM OR PLASMA</CheckValue></RangeCheck></def:WhereClauseDef><def:WhereClauseDef OID="WC.LB.e6a434ec"><RangeCheck Comparator="EQ" SoftHard="Soft" def:ItemOID="IT.LB.LBTESTCD"><CheckValue>UROBIL</CheckValue></RangeCheck><RangeCheck Comparator="EQ" SoftHard="Soft" def:ItemOID="IT.LB.LBSPEC"><CheckValue>URINE</CheckValue></RangeCheck></def:WhereClauseDef><def:WhereClauseDef OID="WC.LB.9e9118c8"><RangeCheck Comparator="EQ" SoftHard="Soft" def:ItemOID="IT.LB.LBTESTCD"><CheckValue>HBA1C</CheckValue></RangeCheck><RangeCheck Comparator="EQ" SoftHard="Soft" def:ItemOID="IT.LB.LBSPEC"><CheckValue>BLOOD</CheckValue></RangeCheck></def:WhereClauseDef><def:WhereClauseDef OID="WC.LB.8644d9ca"><RangeCheck Comparator="EQ" SoftHard="Soft" def:ItemOID="IT.LB.LBTESTCD"><CheckValue>HBA1CHGB</CheckValue></RangeCheck><RangeCheck Comparator="EQ" SoftHard="Soft" def:ItemOID="IT.LB.LBSPEC"><CheckValue>BLOOD</CheckValue></RangeCheck></def:WhereClauseDef><def:WhereClauseDef OID="WC.MB.49773274"><RangeCheck Comparator="EQ" SoftHard="Soft" def:ItemOID="IT.MB.MBTESTCD"><CheckValue>TPLAB</CheckValue></RangeCheck><RangeCheck Comparator="EQ" SoftHard="Soft" def:ItemOID="IT.MB.MBTSTDTL"><CheckValue>DETECTION</CheckValue></RangeCheck><RangeCheck Comparator="EQ" SoftHard="Soft" def:ItemOID="IT.MB.MBSPEC"><CheckValue>SERUM</CheckValue></RangeCheck><RangeCheck Comparator="IN" SoftHard="Soft" def:ItemOID="IT.MB.MBMETHOD"><CheckValue>FLUORESCENT IMMUNOASSAY</CheckValue><CheckValue>HEMAGGLUTINATION ASSAY</CheckValue><CheckValue>CHEMILUMINESCENT MICROPARTICLE IMMUNOASSAY</CheckValue><CheckValue>POLYMERASE CHAIN REACTION</CheckValue><CheckValue>IMMUNOBLOT</CheckValue><CheckValue>RAPID IMMUNOASSAY</CheckValue></RangeCheck></def:WhereClauseDef><def:WhereClauseDef OID="WC.MB.e698c5a2"><RangeCheck Comparator="EQ" SoftHard="Soft" def:ItemOID="IT.MB.MBTESTCD"><CheckValue>TPADNA</CheckValue></RangeCheck><RangeCheck Comparator="EQ" SoftHard="Soft" def:ItemOID="IT.MB.MBTSTDTL"><CheckValue>DETECTION</CheckValue></RangeCheck><RangeCheck Comparator="IN" SoftHard="Soft" def:ItemOID="IT.MB.MBSPEC"><CheckValue>BLOOD</CheckValue><CheckValue>CEREBROSPINAL FLUID</CheckValue><CheckValue>FLUID</CheckValue><CheckValue>SWABBED MATERIAL</CheckValue><CheckValue>URINE</CheckValue></RangeCheck><RangeCheck Comparator="EQ" SoftHard="Soft" def:ItemOID="IT.MB.MBMETHOD"><CheckValue>LINE PROBE ASSAY</CheckValue></RangeCheck></def:WhereClauseDef><def:WhereClauseDef OID="WC.TS.08ebd0ce"><RangeCheck Comparator="EQ" SoftHard="Soft" def:ItemOID="IT.TS.TSPARMCD"><CheckValue>ADAPT</CheckValue></RangeCheck></def:WhereClauseDef><def:WhereClauseDef OID="WC.TS.a7d24f4a"><RangeCheck Comparator="EQ" SoftHard="Soft" def:ItemOID="IT.TS.TSPARMCD"><CheckValue>AGEMIN</CheckValue></RangeCheck></def:WhereClauseDef><def:WhereClauseDef OID="WC.TS.4ac86c98"><RangeCheck Comparator="EQ" SoftHard="Soft" def:ItemOID="IT.TS.TSPARMCD"><CheckValue>AGEMAX</CheckValue></RangeCheck></def:WhereClauseDef><def:WhereClauseDef OID="WC.TS.54cd02f1"><RangeCheck Comparator="EQ" SoftHard="Soft" def:ItemOID="IT.TS.TSPARMCD"><CheckValue>COMPTRT</CheckValue></RangeCheck></def:WhereClauseDef><def:WhereClauseDef OID="WC.TS.f9fa8745"><RangeCheck Comparator="EQ" SoftHard="Soft" def:ItemOID="IT.TS.TSPARMCD"><CheckValue>CRMDUR</CheckValue></RangeCheck></def:WhereClauseDef><def:WhereClauseDef OID="WC.TS.7fc6c3e6"><RangeCheck Comparator="EQ" SoftHard="Soft" def:ItemOID="IT.TS.TSPARMCD"><CheckValue>DOSE</CheckValue></RangeCheck></def:WhereClauseDef><def:WhereClauseDef OID="WC.TS.5cd14c68"><RangeCheck Comparator="EQ" SoftHard="Soft" def:ItemOID="IT.TS.TSPARMCD"><CheckValue>DOSFRQ</CheckValue></RangeCheck></def:WhereClauseDef><def:WhereClauseDef OID="WC.TS.4053f56c"><RangeCheck Comparator="EQ" SoftHard="Soft" def:ItemOID="IT.TS.TSPARMCD"><CheckValue>DOSU</CheckValue></RangeCheck></def:WhereClauseDef><def:WhereClauseDef OID="WC.TS.9cdae039"><RangeCheck Comparator="EQ" SoftHard="Soft" def:ItemOID="IT.TS.TSPARMCD"><CheckValue>INDIC</CheckValue></RangeCheck></def:WhereClauseDef><def:WhereClauseDef OID="WC.TS.2c83b5d9"><RangeCheck Comparator="EQ" SoftHard="Soft" def:ItemOID="IT.TS.TSPARMCD"><CheckValue>INTMODEL</CheckValue></RangeCheck></def:WhereClauseDef><def:WhereClauseDef OID="WC.TS.e3ae16cd"><RangeCheck Comparator="EQ" SoftHard="Soft" def:ItemOID="IT.TS.TSPARMCD"><CheckValue>INTTYPE</CheckValue></RangeCheck></def:WhereClauseDef><def:WhereClauseDef OID="WC.TS.89c0d243"><RangeCheck Comparator="EQ" SoftHard="Soft" def:ItemOID="IT.TS.TSPARMCD"><CheckValue>NARMS</CheckValue></RangeCheck></def:WhereClauseDef><def:WhereClauseDef OID="WC.TS.7a056c75"><RangeCheck Comparator="EQ" SoftHard="Soft" def:ItemOID="IT.TS.TSPARMCD"><CheckValue>OBJPRIM</CheckValue></RangeCheck></def:WhereClauseDef><def:WhereClauseDef OID="WC.TS.36721696"><RangeCheck Comparator="EQ" SoftHard="Soft" def:ItemOID="IT.TS.TSPARMCD"><CheckValue>OBJSEC</CheckValue></RangeCheck></def:WhereClauseDef><def:WhereClauseDef OID="WC.TS.d8b84608"><RangeCheck Comparator="EQ" SoftHard="Soft" def:ItemOID="IT.TS.TSPARMCD"><CheckValue>OUTMSPRI</CheckValue></RangeCheck></def:WhereClauseDef><def:WhereClauseDef OID="WC.TS.1d3cd461"><RangeCheck Comparator="EQ" SoftHard="Soft" def:ItemOID="IT.TS.TSPARMCD"><CheckValue>OUTMSSEC</CheckValue></RangeCheck></def:WhereClauseDef><def:WhereClauseDef OID="WC.TS.3a1c5c3c"><RangeCheck Comparator="EQ" SoftHard="Soft" def:ItemOID="IT.TS.TSPARMCD"><CheckValue>PLANSUB</CheckValue></RangeCheck></def:WhereClauseDef><def:WhereClauseDef OID="WC.TS.2b2d70bc"><RangeCheck Comparator="EQ" SoftHard="Soft" def:ItemOID="IT.TS.TSPARMCD"><CheckValue>PTRTDUR</CheckValue></RangeCheck></def:WhereClauseDef><def:WhereClauseDef OID="WC.TS.3c4a8bf2"><RangeCheck Comparator="EQ" SoftHard="Soft" def:ItemOID="IT.TS.TSPARMCD"><CheckValue>ROUTE</CheckValue></RangeCheck></def:WhereClauseDef><def:WhereClauseDef OID="WC.TS.4f0c74c2"><RangeCheck Comparator="EQ" SoftHard="Soft" def:ItemOID="IT.TS.TSPARMCD"><CheckValue>SEXPOP</CheckValue></RangeCheck></def:WhereClauseDef><def:WhereClauseDef OID="WC.TS.51236927"><RangeCheck Comparator="EQ" SoftHard="Soft" def:ItemOID="IT.TS.TSPARMCD"><CheckValue>SPONSOR</CheckValue></RangeCheck></def:WhereClauseDef><def:WhereClauseDef OID="WC.TS.f4cb41bb"><RangeCheck Comparator="EQ" SoftHard="Soft" def:ItemOID="IT.TS.TSPARMCD"><CheckValue>STYPE</CheckValue></RangeCheck></def:WhereClauseDef><def:WhereClauseDef OID="WC.TS.9e101607"><RangeCheck Comparator="EQ" SoftHard="Soft" def:ItemOID="IT.TS.TSPARMCD"><CheckValue>TBLIND</CheckValue></RangeCheck></def:WhereClauseDef><def:WhereClauseDef OID="WC.TS.d8c1ac4c"><RangeCheck Comparator="EQ" SoftHard="Soft" def:ItemOID="IT.TS.TSPARMCD"><CheckValue>THERAREA</CheckValue></RangeCheck></def:WhereClauseDef><def:WhereClauseDef OID="WC.TS.e423672b"><RangeCheck Comparator="EQ" SoftHard="Soft" def:ItemOID="IT.TS.TSPARMCD"><CheckValue>TINDTP</CheckValue></RangeCheck></def:WhereClauseDef><def:WhereClauseDef OID="WC.TS.43684533"><RangeCheck Comparator="EQ" SoftHard="Soft" def:ItemOID="IT.TS.TSPARMCD"><CheckValue>TITLE</CheckValue></RangeCheck></def:WhereClauseDef><def:WhereClauseDef OID="WC.TS.22640600"><RangeCheck Comparator="EQ" SoftHard="Soft" def:ItemOID="IT.TS.TSPARMCD"><CheckValue>TPHASE</CheckValue></RangeCheck></def:WhereClauseDef><def:WhereClauseDef OID="WC.TS.1948fed3"><RangeCheck Comparator="EQ" SoftHard="Soft" def:ItemOID="IT.TS.TSPARMCD"><CheckValue>TRT</CheckValue></RangeCheck></def:WhereClauseDef><def:WhereClauseDef OID="WC.TS.29af0670"><RangeCheck Comparator="EQ" SoftHard="Soft" def:ItemOID="IT.TS.TSPARMCD"><CheckValue>TTYPE</CheckValue></RangeCheck></def:WhereClauseDef><def:WhereClauseDef OID="WC.IE.1d2bb25f"><RangeCheck Comparator="EQ" SoftHard="Soft" def:ItemOID="IT.IE.IETESTCD"><CheckValue>IN01</CheckValue></RangeCheck></def:WhereClauseDef><def:WhereClauseDef OID="WC.IE.fa688bf3"><RangeCheck Comparator="EQ" SoftHard="Soft" def:ItemOID="IT.IE.IETESTCD"><CheckValue>IN02</CheckValue></RangeCheck></def:WhereClauseDef><def:WhereClauseDef OID="WC.IE.f276b607"><RangeCheck Comparator="EQ" SoftHard="Soft" def:ItemOID="IT.IE.IETESTCD"><CheckValue>IN03</CheckValue></RangeCheck></def:WhereClauseDef><def:WhereClauseDef OID="WC.IE.cd528448"><RangeCheck Comparator="EQ" SoftHard="Soft" def:ItemOID="IT.IE.IETESTCD"><CheckValue>IN04</CheckValue></RangeCheck></def:WhereClauseDef><def:WhereClauseDef OID="WC.IE.c1db3fd3"><RangeCheck Comparator="EQ" SoftHard="Soft" def:ItemOID="IT.IE.IETESTCD"><CheckValue>IN05</CheckValue></RangeCheck></def:WhereClauseDef><def:WhereClauseDef OID="WC.IE.c2ec614b"><RangeCheck Comparator="EQ" SoftHard="Soft" def:ItemOID="IT.IE.IETESTCD"><CheckValue>IN06</CheckValue></RangeCheck></def:WhereClauseDef><def:WhereClauseDef OID="WC.IE.2ef341aa"><RangeCheck Comparator="EQ" SoftHard="Soft" def:ItemOID="IT.IE.IETESTCD"><CheckValue>IN07</CheckValue></RangeCheck></def:WhereClauseDef><def:WhereClauseDef OID="WC.IE.5d85184b"><RangeCheck Comparator="EQ" SoftHard="Soft" def:ItemOID="IT.IE.IETESTCD"><CheckValue>IN08</CheckValue></RangeCheck></def:WhereClauseDef><def:WhereClauseDef OID="WC.IE.8579104c"><RangeCheck Comparator="EQ" SoftHard="Soft" def:ItemOID="IT.IE.IETESTCD"><CheckValue>EX01</CheckValue></RangeCheck></def:WhereClauseDef><def:WhereClauseDef OID="WC.IE.74eacc45"><RangeCheck Comparator="EQ" SoftHard="Soft" def:ItemOID="IT.IE.IETESTCD"><CheckValue>EX02</CheckValue></RangeCheck></def:WhereClauseDef><def:WhereClauseDef OID="WC.IE.ce0e8d09"><RangeCheck Comparator="EQ" SoftHard="Soft" def:ItemOID="IT.IE.IETESTCD"><CheckValue>EX03</CheckValue></RangeCheck></def:WhereClauseDef><def:WhereClauseDef OID="WC.IE.945bafbd"><RangeCheck Comparator="EQ" SoftHard="Soft" def:ItemOID="IT.IE.IETESTCD"><CheckValue>EX04</CheckValue></RangeCheck></def:WhereClauseDef><def:WhereClauseDef OID="WC.IE.afbec960"><RangeCheck Comparator="EQ" SoftHard="Soft" def:ItemOID="IT.IE.IETESTCD"><CheckValue>EX05</CheckValue></RangeCheck></def:WhereClauseDef><def:WhereClauseDef OID="WC.IE.cac0d3f4"><RangeCheck Comparator="EQ" SoftHard="Soft" def:ItemOID="IT.IE.IETESTCD"><CheckValue>EX06</CheckValue></RangeCheck></def:WhereClauseDef><def:WhereClauseDef OID="WC.IE.cabd9be0"><RangeCheck Comparator="EQ" SoftHard="Soft" def:ItemOID="IT.IE.IETESTCD"><CheckValue>EX07</CheckValue></RangeCheck></def:WhereClauseDef><def:WhereClauseDef OID="WC.IE.fbae7983"><RangeCheck Comparator="EQ" SoftHard="Soft" def:ItemOID="IT.IE.IETESTCD"><CheckValue>EX08</CheckValue></RangeCheck></def:WhereClauseDef><def:WhereClauseDef OID="WC.IE.0952c014"><RangeCheck Comparator="EQ" SoftHard="Soft" def:ItemOID="IT.IE.IETESTCD"><CheckValue>EX09</CheckValue></RangeCheck></def:WhereClauseDef><def:WhereClauseDef OID="WC.IE.5b8b02b2"><RangeCheck Comparator="EQ" SoftHard="Soft" def:ItemOID="IT.IE.IETESTCD"><CheckValue>EX10</CheckValue></RangeCheck></def:WhereClauseDef><def:WhereClauseDef OID="WC.IE.70a941e7"><RangeCheck Comparator="EQ" SoftHard="Soft" def:ItemOID="IT.IE.IETESTCD"><CheckValue>EX11</CheckValue></RangeCheck></def:WhereClauseDef><def:WhereClauseDef OID="WC.IE.611f5d7b"><RangeCheck Comparator="EQ" SoftHard="Soft" def:ItemOID="IT.IE.IETESTCD"><CheckValue>EX12</CheckValue></RangeCheck></def:WhereClauseDef><def:WhereClauseDef OID="WC.IE.8abff918"><RangeCheck Comparator="EQ" SoftHard="Soft" def:ItemOID="IT.IE.IETESTCD"><CheckValue>EX13</CheckValue></RangeCheck></def:WhereClauseDef><def:WhereClauseDef OID="WC.IE.b089a2a0"><RangeCheck Comparator="EQ" SoftHard="Soft" def:ItemOID="IT.IE.IETESTCD"><CheckValue>EX14</CheckValue></RangeCheck></def:WhereClauseDef><def:WhereClauseDef OID="WC.IE.39cb2456"><RangeCheck Comparator="EQ" SoftHard="Soft" def:ItemOID="IT.IE.IETESTCD"><CheckValue>EX15</CheckValue></RangeCheck></def:WhereClauseDef><def:WhereClauseDef OID="WC.IE.2cdb5c18"><RangeCheck Comparator="EQ" SoftHard="Soft" def:ItemOID="IT.IE.IETESTCD"><CheckValue>EX16</CheckValue></RangeCheck></def:WhereClauseDef><def:WhereClauseDef OID="WC.IE.b415f3a9"><RangeCheck Comparator="EQ" SoftHard="Soft" def:ItemOID="IT.IE.IETESTCD"><CheckValue>EX17</CheckValue></RangeCheck></def:WhereClauseDef><def:WhereClauseDef OID="WC.IE.5c29f970"><RangeCheck Comparator="EQ" SoftHard="Soft" def:ItemOID="IT.IE.IETESTCD"><CheckValue>EX18</CheckValue></RangeCheck></def:WhereClauseDef><def:WhereClauseDef OID="WC.IE.9fe9a358"><RangeCheck Comparator="EQ" SoftHard="Soft" def:ItemOID="IT.IE.IETESTCD"><CheckValue>EX19</CheckValue></RangeCheck></def:WhereClauseDef><def:WhereClauseDef OID="WC.IE.e36b210b"><RangeCheck Comparator="EQ" SoftHard="Soft" def:ItemOID="IT.IE.IETESTCD"><CheckValue>EX20</CheckValue></RangeCheck></def:WhereClauseDef><def:WhereClauseDef OID="WC.IE.743b4fb5"><RangeCheck Comparator="EQ" SoftHard="Soft" def:ItemOID="IT.IE.IETESTCD"><CheckValue>EX21</CheckValue></RangeCheck></def:WhereClauseDef><def:WhereClauseDef OID="WC.IE.76a82754"><RangeCheck Comparator="EQ" SoftHard="Soft" def:ItemOID="IT.IE.IETESTCD"><CheckValue>EX22</CheckValue></RangeCheck></def:WhereClauseDef><def:WhereClauseDef OID="WC.IE.fbeb5a1e"><RangeCheck Comparator="EQ" SoftHard="Soft" def:ItemOID="IT.IE.IETESTCD"><CheckValue>EX23</CheckValue></RangeCheck></def:WhereClauseDef><ItemGroupDef OID="IG.DS" Name="DS" Repeating="Yes" def:Structure="One record per disposition status or protocol milestone per subject" IsReferenceData="No" SASDatasetName="DS" Domain="DS" Purpose="Tabulation" def:StandardOID="STD.SDTMIG"><Description><TranslatedText>Disposition</TranslatedText></Description><ItemRef ItemOID="IT.DS.STUDYID" Mandatory="Yes" OrderNumber="1" Role="Identifier" /><ItemRef ItemOID="IT.DS.DOMAIN" Mandatory="Yes" OrderNumber="2" Role="Identifier" /><ItemRef ItemOID="IT.DS.USUBJID" Mandatory="Yes" OrderNumber="3" Role="Identifier" /><ItemRef ItemOID="IT.DS.DSSEQ" Mandatory="Yes" OrderNumber="4" Role="Identifier" /><ItemRef ItemOID="IT.DS.DSTERM" Mandatory="Yes" OrderNumber="5" Role="Topic" /><ItemRef ItemOID="IT.DS.DSDECOD" Mandatory="Yes" OrderNumber="6" Role="Synonym Qualifier" /><ItemRef ItemOID="IT.DS.DSCAT" Mandatory="No" OrderNumber="7" Role="Grouping Qualifier" /><ItemRef ItemOID="IT.DS.DSSCAT" Mandatory="No" OrderNumber="8" Role="Grouping Qualifier" /><ItemRef ItemOID="IT.DS.DSSTDTC" Mandatory="No" OrderNumber="9" Role="Timing" /><ItemRef ItemOID="IT.DS.DSSTDY" Mandatory="No" OrderNumber="10" Role="Timing" /><def:Class Name="EVENTS" /><def:leaf ID="LF.DS" xlink:href="ds.ndjson"><def:title>ds.ndjson</def:title></def:leaf></ItemGroupDef><ItemGroupDef OID="IG.DM" Name="DM" Repeating="No" def:Structure="One record per subject" IsReferenceData="No" SASDatasetName="DM" Domain="DM" Purpose="Tabulation" def:StandardOID="STD.SDTMIG"><Description><TranslatedText>Demographics</TranslatedText></Description><ItemRef ItemOID="IT.DM.STUDYID" Mandatory="Yes" OrderNumber="1" Role="Identifier" /><ItemRef ItemOID="IT.DM.DOMAIN" Mandatory="Yes" OrderNumber="2" Role="Identifier" /><ItemRef ItemOID="IT.DM.USUBJID" Mandatory="Yes" OrderNumber="3" Role="Identifier" /><ItemRef ItemOID="IT.DM.SUBJID" Mandatory="Yes" OrderNumber="4" Role="Topic" /><ItemRef ItemOID="IT.DM.RFSTDTC" Mandatory="No" OrderNumber="5" Role="Record Qualifier" /><ItemRef ItemOID="IT.DM.RFENDTC" Mandatory="No" OrderNumber="6" Role="Record Qualifier" /><ItemRef ItemOID="IT.DM.RFXSTDTC" Mandatory="No" OrderNumber="7" Role="Record Qualifier" /><ItemRef ItemOID="IT.DM.RFXENDTC" Mandatory="No" OrderNumber="8" Role="Record Qualifier" /><ItemRef ItemOID="IT.DM.RFICDTC" Mandatory="No" OrderNumber="9" Role="Record Qualifier" /><ItemRef ItemOID="IT.DM.RFPENDTC" Mandatory="No" OrderNumber="10" Role="Record Qualifier" /><ItemRef ItemOID="IT.DM.DTHDTC" Mandatory="No" OrderNumber="11" Role="Record Qualifier" /><ItemRef ItemOID="IT.DM.DTHFL" Mandatory="No" OrderNumber="12" Role="Record Qualifier" /><ItemRef ItemOID="IT.DM.SITEID" Mandatory="Yes" OrderNumber="13" Role="Record Qualifier" /><ItemRef ItemOID="IT.DM.AGE" Mandatory="No" OrderNumber="14" Role="Record Qualifier" /><ItemRef ItemOID="IT.DM.AGEU" Mandatory="No" OrderNumber="15" Role="Variable Qualifier" /><ItemRef ItemOID="IT.DM.SEX" Mandatory="Yes" OrderNumber="16" Role="Record Qualifier" /><ItemRef ItemOID="IT.DM.RACE" Mandatory="No" OrderNumber="17" Role="Record Qualifier" /><ItemRef ItemOID="IT.DM.ETHNIC" Mandatory="No" OrderNumber="18" Role="Record Qualifier" /><ItemRef ItemOID="IT.DM.ARMCD" Mandatory="No" OrderNumber="19" Role="Record Qualifier" /><ItemRef ItemOID="IT.DM.ARM" Mandatory="No" OrderNumber="20" Role="Synonym Qualifier" /><ItemRef ItemOID="IT.DM.ACTARMCD" Mandatory="No" OrderNumber="21" Role="Record Qualifier" /><ItemRef ItemOID="IT.DM.ACTARM" Mandatory="No" OrderNumber="22" Role="Synonym Qualifier" /><ItemRef ItemOID="IT.DM.ARMNRS" Mandatory="No" OrderNumber="23" Role="Record Qualifier" /><ItemRef ItemOID="IT.DM.ACTARMUD" Mandatory="No" OrderNumber="24" Role="Record Qualifier" /><ItemRef ItemOID="IT.DM.COUNTRY" Mandatory="Yes" OrderNumber="25" Role="Record Qualifier" /><ItemRef ItemOID="IT.DM.DMDTC" Mandatory="No" OrderNumber="26" Role="Timing" /><def:Class Name="SPECIAL PURPOSE" /><def:leaf ID="LF.DM" xlink:href="dm.ndjson"><def:title>dm.ndjson</def:title></def:leaf></ItemGroupDef><ItemGroupDef OID="IG.SC" Name="SC" Repeating="Yes" def:Structure="One record per characteristic per visit per subject." IsReferenceData="No" SASDatasetName="SC" Domain="SC" Purpose="Tabulation" def:StandardOID="STD.SDTMIG"><Description><TranslatedText>Subject Characteristics</TranslatedText></Description><ItemRef ItemOID="IT.SC.STUDYID" Mandatory="Yes" OrderNumber="1" Role="Identifier" /><ItemRef ItemOID="IT.SC.DOMAIN" Mandatory="Yes" OrderNumber="2" Role="Identifier" /><ItemRef ItemOID="IT.SC.USUBJID" Mandatory="Yes" OrderNumber="3" Role="Identifier" /><ItemRef ItemOID="IT.SC.SCSEQ" Mandatory="Yes" OrderNumber="4" Role="Identifier" /><ItemRef ItemOID="IT.SC.SCTESTCD" Mandatory="Yes" OrderNumber="5" Role="Topic" /><ItemRef ItemOID="IT.SC.SCTEST" Mandatory="Yes" OrderNumber="6" Role="Synonym Qualifier" /><ItemRef ItemOID="IT.SC.SCORRES" Mandatory="No" OrderNumber="7" Role="Result Qualifier" /><ItemRef ItemOID="IT.SC.SCORRESU" Mandatory="No" OrderNumber="8" Role="Variable Qualifier" /><ItemRef ItemOID="IT.SC.SCSTRESC" Mandatory="No" OrderNumber="9" Role="Result Qualifier" /><ItemRef ItemOID="IT.SC.SCSTRESN" Mandatory="No" OrderNumber="10" Role="Result Qualifier" /><ItemRef ItemOID="IT.SC.SCSTRESU" Mandatory="No" OrderNumber="11" Role="Variable Qualifier" /><ItemRef ItemOID="IT.SC.SCDTC" Mandatory="No" OrderNumber="12" Role="Timing" /><def:Class Name="FINDINGS" /><def:leaf ID="LF.SC" xlink:href="sc.ndjson"><def:title>sc.ndjson</def:title></def:leaf></ItemGroupDef><ItemGroupDef OID="IG.MH" Name="MH" Repeating="Yes" def:Structure="One record per medical history event per subject" IsReferenceData="No" SASDatasetName="MH" Domain="MH" Purpose="Tabulation" def:StandardOID="STD.SDTMIG"><Description><TranslatedText>Medical History</TranslatedText></Description><ItemRef ItemOID="IT.MH.STUDYID" Mandatory="Yes" OrderNumber="1" Role="Identifier" /><ItemRef ItemOID="IT.MH.DOMAIN" Mandatory="Yes" OrderNumber="2" Role="Identifier" /><ItemRef ItemOID="IT.MH.USUBJID" Mandatory="Yes" OrderNumber="3" Role="Identifier" /><ItemRef ItemOID="IT.MH.MHSEQ" Mandatory="Yes" OrderNumber="4" Role="Identifier" /><ItemRef ItemOID="IT.MH.MHTERM" Mandatory="Yes" OrderNumber="5" Role="Topic" /><ItemRef ItemOID="IT.MH.MHDECOD" Mandatory="No" OrderNumber="6" Role="Synonym Qualifier" /><ItemRef ItemOID="IT.MH.MHPRESP" Mandatory="No" OrderNumber="7" Role="Variable Qualifier" /><ItemRef ItemOID="IT.MH.MHOCCUR" Mandatory="No" OrderNumber="8" Role="Record Qualifier" /><ItemRef ItemOID="IT.MH.MHENRF" Mandatory="No" OrderNumber="9" Role="Timing" /><ItemRef ItemOID="IT.MH.MHENRTPT" Mandatory="No" OrderNumber="10" Role="Timing" /><ItemRef ItemOID="IT.MH.MHENTPT" Mandatory="No" OrderNumber="11" Role="Timing" /><def:Class Name="EVENTS" /><def:leaf ID="LF.MH" xlink:href="mh.ndjson"><def:title>mh.ndjson</def:title></def:leaf></ItemGroupDef><ItemGroupDef OID="IG.SU" Name="SU" Repeating="Yes" def:Structure="One record per substance type per reported occurrence per subject" IsReferenceData="No" SASDatasetName="SU" Domain="SU" Purpose="Tabulation" def:StandardOID="STD.SDTMIG"><Description><TranslatedText>Substance Use</TranslatedText></Description><ItemRef ItemOID="IT.SU.STUDYID" Mandatory="Yes" OrderNumber="1" Role="Identifier" /><ItemRef ItemOID="IT.SU.DOMAIN" Mandatory="Yes" OrderNumber="2" Role="Identifier" /><ItemRef ItemOID="IT.SU.USUBJID" Mandatory="Yes" OrderNumber="3" Role="Identifier" /><ItemRef ItemOID="IT.SU.SUSEQ" Mandatory="Yes" OrderNumber="4" Role="Identifier" /><ItemRef ItemOID="IT.SU.SUTRT" Mandatory="Yes" OrderNumber="5" Role="Topic" /><ItemRef ItemOID="IT.SU.SUCAT" Mandatory="No" OrderNumber="6" Role="Grouping Qualifier" /><ItemRef ItemOID="IT.SU.SUSCAT" Mandatory="No" OrderNumber="7" Role="Grouping Qualifier" /><ItemRef ItemOID="IT.SU.SUPRESP" Mandatory="No" OrderNumber="8" Role="Variable Qualifier" /><ItemRef ItemOID="IT.SU.SUOCCUR" Mandatory="No" OrderNumber="9" Role="Record Qualifier" /><ItemRef ItemOID="IT.SU.SUDOSE" Mandatory="No" OrderNumber="10" Role="Record Qualifier" /><ItemRef ItemOID="IT.SU.SUDOSTXT" Mandatory="No" OrderNumber="11" Role="Record Qualifier" /><ItemRef ItemOID="IT.SU.SUDOSU" Mandatory="No" OrderNumber="12" Role="Variable Qualifier" /><ItemRef ItemOID="IT.SU.SUDOSFRQ" Mandatory="No" OrderNumber="13" Role="Variable Qualifier" /><ItemRef ItemOID="IT.SU.SUSTDTC" Mandatory="No" OrderNumber="14" Role="Timing" /><ItemRef ItemOID="IT.SU.SUENDTC" Mandatory="No" OrderNumber="15" Role="Timing" /><ItemRef ItemOID="IT.SU.SUDUR" Mandatory="No" OrderNumber="16" Role="Timing" /><ItemRef ItemOID="IT.SU.SUSTRF" Mandatory="No" OrderNumber="17" Role="Timing" /><ItemRef ItemOID="IT.SU.SUENRF" Mandatory="No" OrderNumber="18" Role="Timing" /><ItemRef ItemOID="IT.SU.SUSTRTPT" Mandatory="No" OrderNumber="19" Role="Timing" /><ItemRef ItemOID="IT.SU.SUSTTPT" Mandatory="No" OrderNumber="20" Role="Timing" /><ItemRef ItemOID="IT.SU.SUENRTPT" Mandatory="No" OrderNumber="21" Role="Timing" /><ItemRef ItemOID="IT.SU.SUENTPT" Mandatory="No" OrderNumber="22" Role="Timing" /><def:Class Name="INTERVENTIONS" /><def:leaf ID="LF.SU" xlink:href="su.ndjson"><def:title>su.ndjson</def:title></def:leaf></ItemGroupDef><ItemGroupDef OID="IG.PR" Name="PR" Repeating="Yes" def:Structure="One record per recorded procedure per occurrence per subject" IsReferenceData="No" SASDatasetName="PR" Domain="PR" Purpose="Tabulation" def:StandardOID="STD.SDTMIG"><Description><TranslatedText>Procedures</TranslatedText></Description><ItemRef ItemOID="IT.PR.STUDYID" Mandatory="Yes" OrderNumber="1" Role="Identifier" /><ItemRef ItemOID="IT.PR.DOMAIN" Mandatory="Yes" OrderNumber="2" Role="Identifier" /><ItemRef ItemOID="IT.PR.USUBJID" Mandatory="Yes" OrderNumber="3" Role="Identifier" /><ItemRef ItemOID="IT.PR.PRSEQ" Mandatory="Yes" OrderNumber="4" Role="Identifier" /><ItemRef ItemOID="IT.PR.PRTRT" Mandatory="Yes" OrderNumber="5" Role="Topic" /><ItemRef ItemOID="IT.PR.PRDECOD" Mandatory="No" OrderNumber="6" Role="Synonym Qualifier" /><ItemRef ItemOID="IT.PR.PRCAT" Mandatory="No" OrderNumber="7" Role="Grouping Qualifier" /><ItemRef ItemOID="IT.PR.PRSCAT" Mandatory="No" OrderNumber="8" Role="Grouping Qualifier" /><ItemRef ItemOID="IT.PR.PRPRESP" Mandatory="No" OrderNumber="9" Role="Variable Qualifier" /><ItemRef ItemOID="IT.PR.PROCCUR" Mandatory="No" OrderNumber="10" Role="Record Qualifier" /><ItemRef ItemOID="IT.PR.PRLOC" Mandatory="No" OrderNumber="11" Role="Record Qualifier" /><ItemRef ItemOID="IT.PR.PRSTDTC" Mandatory="No" OrderNumber="12" Role="Timing" /><ItemRef ItemOID="IT.PR.PRENDTC" Mandatory="No" OrderNumber="13" Role="Timing" /><def:Class Name="INTERVENTIONS" /><def:leaf ID="LF.PR" xlink:href="pr.ndjson"><def:title>pr.ndjson</def:title></def:leaf></ItemGroupDef><ItemGroupDef OID="IG.VS" Name="VS" Repeating="Yes" def:Structure="One record per vital sign measurement per time point per visit per subject" IsReferenceData="No" SASDatasetName="VS" Domain="VS" Purpose="Tabulation" def:StandardOID="STD.SDTMIG"><Description><TranslatedText>Vital Signs</TranslatedText></Description><ItemRef ItemOID="IT.VS.STUDYID" Mandatory="Yes" OrderNumber="1" Role="Identifier" /><ItemRef ItemOID="IT.VS.DOMAIN" Mandatory="Yes" OrderNumber="2" Role="Identifier" /><ItemRef ItemOID="IT.VS.USUBJID" Mandatory="Yes" OrderNumber="3" Role="Identifier" /><ItemRef ItemOID="IT.VS.VSSEQ" Mandatory="Yes" OrderNumber="4" Role="Identifier" /><ItemRef ItemOID="IT.VS.VSTESTCD" Mandatory="Yes" OrderNumber="5" Role="Topic" /><ItemRef ItemOID="IT.VS.VSTEST" Mandatory="Yes" OrderNumber="6" Role="Synonym Qualifier" /><ItemRef ItemOID="IT.VS.VSPOS" Mandatory="No" OrderNumber="7" Role="Record Qualifier" /><ItemRef ItemOID="IT.VS.VSORRES" Mandatory="No" OrderNumber="8" Role="Result Qualifier" /><ItemRef ItemOID="IT.VS.VSORRESU" Mandatory="No" OrderNumber="9" Role="Variable Qualifier" /><ItemRef ItemOID="IT.VS.VSSTRESC" Mandatory="No" OrderNumber="10" Role="Result Qualifier" /><ItemRef ItemOID="IT.VS.VSSTRESN" Mandatory="No" OrderNumber="11" Role="Result Qualifier" /><ItemRef ItemOID="IT.VS.VSSTRESU" Mandatory="No" OrderNumber="12" Role="Variable Qualifier" /><ItemRef ItemOID="IT.VS.VSLOC" Mandatory="No" OrderNumber="13" Role="Record Qualifier" /><ItemRef ItemOID="IT.VS.VSLAT" Mandatory="No" OrderNumber="14" Role="Result Qualifier" /><ItemRef ItemOID="IT.VS.VSLOBXFL" Mandatory="No" OrderNumber="15" Role="Record Qualifier" /><ItemRef ItemOID="IT.VS.VISITNUM" Mandatory="No" OrderNumber="16" Role="Timing" /><ItemRef ItemOID="IT.VS.VSDTC" Mandatory="No" OrderNumber="17" Role="Timing" /><def:Class Name="FINDINGS" /><def:leaf ID="LF.VS" xlink:href="vs.ndjson"><def:title>vs.ndjson</def:title></def:leaf></ItemGroupDef><ItemGroupDef OID="IG.EG" Name="EG" Repeating="Yes" def:Structure="One record per ECG observation per replicate per time point or one record per ECG observation per beat per visit per subject" IsReferenceData="No" SASDatasetName="EG" Domain="EG" Purpose="Tabulation" def:StandardOID="STD.SDTMIG"><Description><TranslatedText>ECG Test Results</TranslatedText></Description><ItemRef ItemOID="IT.EG.STUDYID" Mandatory="Yes" OrderNumber="1" Role="Identifier" /><ItemRef ItemOID="IT.EG.DOMAIN" Mandatory="Yes" OrderNumber="2" Role="Identifier" /><ItemRef ItemOID="IT.EG.USUBJID" Mandatory="Yes" OrderNumber="3" Role="Identifier" /><ItemRef ItemOID="IT.EG.EGSEQ" Mandatory="Yes" OrderNumber="4" Role="Identifier" /><ItemRef ItemOID="IT.EG.EGTESTCD" Mandatory="Yes" OrderNumber="5" Role="Topic" /><ItemRef ItemOID="IT.EG.EGTEST" Mandatory="Yes" OrderNumber="6" Role="Synonym Qualifier" /><ItemRef ItemOID="IT.EG.EGCAT" Mandatory="No" OrderNumber="7" Role="Grouping Qualifier" /><ItemRef ItemOID="IT.EG.EGPOS" Mandatory="No" OrderNumber="8" Role="Record Qualifier" /><ItemRef ItemOID="IT.EG.EGORRES" Mandatory="No" OrderNumber="9" Role="Result Qualifier" /><ItemRef ItemOID="IT.EG.EGORRESU" Mandatory="No" OrderNumber="10" Role="Variable Qualifier" /><ItemRef ItemOID="IT.EG.EGSTRESC" Mandatory="No" OrderNumber="11" Role="Result Qualifier" /><ItemRef ItemOID="IT.EG.EGSTRESN" Mandatory="No" OrderNumber="12" Role="Result Qualifier" /><ItemRef ItemOID="IT.EG.EGSTRESU" Mandatory="No" OrderNumber="13" Role="Variable Qualifier" /><ItemRef ItemOID="IT.EG.EGMETHOD" Mandatory="No" OrderNumber="14" Role="Record Qualifier" /><ItemRef ItemOID="IT.EG.EGLOBXFL" Mandatory="No" OrderNumber="15" Role="Record Qualifier" /><ItemRef ItemOID="IT.EG.EGEVAL" Mandatory="No" OrderNumber="16" Role="Record Qualifier" /><ItemRef ItemOID="IT.EG.EGCLSIG" Mandatory="No" OrderNumber="17" Role="Record Qualifier" /><ItemRef ItemOID="IT.EG.VISITNUM" Mandatory="No" OrderNumber="18" Role="Timing" /><ItemRef ItemOID="IT.EG.EGDTC" Mandatory="No" OrderNumber="19" Role="Timing" /><def:Class Name="FINDINGS" /><def:leaf ID="LF.EG" xlink:href="eg.ndjson"><def:title>eg.ndjson</def:title></def:leaf></ItemGroupDef><ItemGroupDef OID="IG.CM" Name="CM" Repeating="Yes" def:Structure="One record per recorded intervention occurrence or constant-dosing interval per subject" IsReferenceData="No" SASDatasetName="CM" Domain="CM" Purpose="Tabulation" def:StandardOID="STD.SDTMIG"><Description><TranslatedText>Concomitant/Prior Medications</TranslatedText></Description><ItemRef ItemOID="IT.CM.STUDYID" Mandatory="Yes" OrderNumber="1" Role="Identifier" /><ItemRef ItemOID="IT.CM.DOMAIN" Mandatory="Yes" OrderNumber="2" Role="Identifier" /><ItemRef ItemOID="IT.CM.USUBJID" Mandatory="Yes" OrderNumber="3" Role="Identifier" /><ItemRef ItemOID="IT.CM.CMSEQ" Mandatory="Yes" OrderNumber="4" Role="Identifier" /><ItemRef ItemOID="IT.CM.CMTRT" Mandatory="Yes" OrderNumber="5" Role="Topic" /><ItemRef ItemOID="IT.CM.CMDECOD" Mandatory="No" OrderNumber="6" Role="Synonym Qualifier" /><ItemRef ItemOID="IT.CM.CMCAT" Mandatory="No" OrderNumber="7" Role="Grouping Qualifier" /><ItemRef ItemOID="IT.CM.CMSCAT" Mandatory="No" OrderNumber="8" Role="Grouping Qualifier" /><ItemRef ItemOID="IT.CM.CMPRESP" Mandatory="No" OrderNumber="9" Role="Variable Qualifier" /><ItemRef ItemOID="IT.CM.CMOCCUR" Mandatory="No" OrderNumber="10" Role="Record Qualifier" /><ItemRef ItemOID="IT.CM.CMINDC" Mandatory="No" OrderNumber="11" Role="Record Qualifier" /><ItemRef ItemOID="IT.CM.CMDOSE" Mandatory="No" OrderNumber="12" Role="Record Qualifier" /><ItemRef ItemOID="IT.CM.CMDOSU" Mandatory="No" OrderNumber="13" Role="Variable Qualifier" /><ItemRef ItemOID="IT.CM.CMDOSFRM" Mandatory="No" OrderNumber="14" Role="Variable Qualifier" /><ItemRef ItemOID="IT.CM.CMROUTE" Mandatory="No" OrderNumber="15" Role="Variable Qualifier" /><ItemRef ItemOID="IT.CM.CMSTDTC" Mandatory="No" OrderNumber="16" Role="Timing" /><ItemRef ItemOID="IT.CM.CMENDTC" Mandatory="No" OrderNumber="17" Role="Timing" /><def:Class Name="INTERVENTIONS" /><def:leaf ID="LF.CM" xlink:href="cm.ndjson"><def:title>cm.ndjson</def:title></def:leaf></ItemGroupDef><ItemGroupDef OID="IG.LB" Name="LB" Repeating="Yes" def:Structure="One record per lab test per time point per visit per subject" IsReferenceData="No" SASDatasetName="LB" Domain="LB" Purpose="Tabulation" def:StandardOID="STD.SDTMIG"><Description><TranslatedText>Laboratory Test Results</TranslatedText></Description><ItemRef ItemOID="IT.LB.STUDYID" Mandatory="Yes" OrderNumber="1" Role="Identifier" /><ItemRef ItemOID="IT.LB.DOMAIN" Mandatory="Yes" OrderNumber="2" Role="Identifier" /><ItemRef ItemOID="IT.LB.USUBJID" Mandatory="Yes" OrderNumber="3" Role="Identifier" /><ItemRef ItemOID="IT.LB.LBSEQ" Mandatory="Yes" OrderNumber="4" Role="Identifier" /><ItemRef ItemOID="IT.LB.LBTESTCD" Mandatory="Yes" OrderNumber="5" Role="Topic" /><ItemRef ItemOID="IT.LB.LBTEST" Mandatory="Yes" OrderNumber="6" Role="Synonym Qualifier" /><ItemRef ItemOID="IT.LB.LBCAT" Mandatory="No" OrderNumber="7" Role="Grouping Qualifier" /><ItemRef ItemOID="IT.LB.LBORRES" Mandatory="No" OrderNumber="8" Role="Result Qualifier" /><ItemRef ItemOID="IT.LB.LBORRESU" Mandatory="No" OrderNumber="9" Role="Variable Qualifier" /><ItemRef ItemOID="IT.LB.LBORNRLO" Mandatory="No" OrderNumber="10" Role="Variable Qualifier" /><ItemRef ItemOID="IT.LB.LBORNRHI" Mandatory="No" OrderNumber="11" Role="Variable Qualifier" /><ItemRef ItemOID="IT.LB.LBSTRESC" Mandatory="No" OrderNumber="12" Role="Result Qualifier" /><ItemRef ItemOID="IT.LB.LBSTRESN" Mandatory="No" OrderNumber="13" Role="Result Qualifier" /><ItemRef ItemOID="IT.LB.LBSTRESU" Mandatory="No" OrderNumber="14" Role="Variable Qualifier" /><ItemRef ItemOID="IT.LB.LBSTNRLO" Mandatory="No" OrderNumber="15" Role="Variable Qualifier" /><ItemRef ItemOID="IT.LB.LBSTNRHI" Mandatory="No" OrderNumber="16" Role="Variable Qualifier" /><ItemRef ItemOID="IT.LB.LBNRIND" Mandatory="No" OrderNumber="17" Role="Variable Qualifier" /><ItemRef ItemOID="IT.LB.LBSPEC" Mandatory="No" OrderNumber="18" Role="Record Qualifier" /><ItemRef ItemOID="IT.LB.LBMETHOD" Mandatory="No" OrderNumber="19" Role="Record Qualifier" /><ItemRef ItemOID="IT.LB.LBLOBXFL" Mandatory="No" OrderNumber="20" Role="Record Qualifier" /><ItemRef ItemOID="IT.LB.LBFAST" Mandatory="No" OrderNumber="21" Role="Record Qualifier" /><ItemRef ItemOID="IT.LB.VISITNUM" Mandatory="No" OrderNumber="22" Role="Timing" /><ItemRef ItemOID="IT.LB.LBDTC" Mandatory="No" OrderNumber="23" Role="Timing" /><def:Class Name="FINDINGS" /><def:leaf ID="LF.LB" xlink:href="lb.ndjson"><def:title>lb.ndjson</def:title></def:leaf></ItemGroupDef><ItemGroupDef OID="IG.MB" Name="MB" Repeating="Yes" def:Structure="One record per microbiology specimen finding per time point per visit per subject" IsReferenceData="No" SASDatasetName="MB" Domain="MB" Purpose="Tabulation" def:StandardOID="STD.SDTMIG"><Description><TranslatedText>Microbiology Specimen</TranslatedText></Description><ItemRef ItemOID="IT.MB.STUDYID" Mandatory="Yes" OrderNumber="1" Role="Identifier" /><ItemRef ItemOID="IT.MB.DOMAIN" Mandatory="Yes" OrderNumber="2" Role="Identifier" /><ItemRef ItemOID="IT.MB.USUBJID" Mandatory="Yes" OrderNumber="3" Role="Identifier" /><ItemRef ItemOID="IT.MB.MBSEQ" Mandatory="Yes" OrderNumber="4" Role="Identifier" /><ItemRef ItemOID="IT.MB.MBTESTCD" Mandatory="Yes" OrderNumber="5" Role="Topic" /><ItemRef ItemOID="IT.MB.MBTEST" Mandatory="Yes" OrderNumber="6" Role="Synonym Qualifier" /><ItemRef ItemOID="IT.MB.MBTSTDTL" Mandatory="No" OrderNumber="7" Role="Variable Qualifier" /><ItemRef ItemOID="IT.MB.MBORRES" Mandatory="No" OrderNumber="8" Role="Result Qualifier" /><ItemRef ItemOID="IT.MB.MBSTRESC" Mandatory="No" OrderNumber="9" Role="Result Qualifier" /><ItemRef ItemOID="IT.MB.MBSPEC" Mandatory="No" OrderNumber="10" Role="Record Qualifier" /><ItemRef ItemOID="IT.MB.MBMETHOD" Mandatory="No" OrderNumber="11" Role="Record Qualifier" /><ItemRef ItemOID="IT.MB.VISITNUM" Mandatory="No" OrderNumber="12" Role="Timing" /><ItemRef ItemOID="IT.MB.MBDTC" Mandatory="No" OrderNumber="13" Role="Timing" /><def:Class Name="FINDINGS" /><def:leaf ID="LF.MB" xlink:href="mb.ndjson"><def:title>mb.ndjson</def:title></def:leaf></ItemGroupDef><ItemGroupDef OID="IG.EC" Name="EC" Repeating="Yes" def:Structure="One record per protocol-specified study treatment, collected-dosing interval, per subject, per mood" IsReferenceData="No" SASDatasetName="EC" Domain="EC" Purpose="Tabulation" def:StandardOID="STD.SDTMIG"><Description><TranslatedText>Exposure as Collected</TranslatedText></Description><ItemRef ItemOID="IT.EC.STUDYID" Mandatory="Yes" OrderNumber="1" Role="Identifier" /><ItemRef ItemOID="IT.EC.DOMAIN" Mandatory="Yes" OrderNumber="2" Role="Identifier" /><ItemRef ItemOID="IT.EC.USUBJID" Mandatory="Yes" OrderNumber="3" Role="Identifier" /><ItemRef ItemOID="IT.EC.ECSEQ" Mandatory="Yes" OrderNumber="4" Role="Identifier" /><ItemRef ItemOID="IT.EC.ECREFID" Mandatory="No" OrderNumber="5" Role="Identifier" /><ItemRef ItemOID="IT.EC.ECTRT" Mandatory="Yes" OrderNumber="6" Role="Topic" /><ItemRef ItemOID="IT.EC.ECDOSE" Mandatory="No" OrderNumber="7" Role="Record Qualifier" /><ItemRef ItemOID="IT.EC.ECDOSTXT" Mandatory="No" OrderNumber="8" Role="Record Qualifier" /><ItemRef ItemOID="IT.EC.ECDOSU" Mandatory="No" OrderNumber="9" Role="Variable Qualifier" /><ItemRef ItemOID="IT.EC.ECDOSFRM" Mandatory="No" OrderNumber="10" Role="Variable Qualifier" /><ItemRef ItemOID="IT.EC.ECDOSFRQ" Mandatory="No" OrderNumber="11" Role="Record Qualifier" /><ItemRef ItemOID="IT.EC.ECDOSRGM" Mandatory="No" OrderNumber="12" Role="Record Qualifier" /><ItemRef ItemOID="IT.EC.ECROUTE" Mandatory="No" OrderNumber="13" Role="Variable Qualifier" /><ItemRef ItemOID="IT.EC.ECLOC" Mandatory="No" OrderNumber="14" Role="Record Qualifier" /><ItemRef ItemOID="IT.EC.ECLAT" Mandatory="No" OrderNumber="15" Role="Variable Qualifier" /><ItemRef ItemOID="IT.EC.ECDIR" Mandatory="No" OrderNumber="16" Role="Variable Qualifier" /><ItemRef ItemOID="IT.EC.ECSTDTC" Mandatory="No" OrderNumber="17" Role="Timing" /><ItemRef ItemOID="IT.EC.ECENDTC" Mandatory="No" OrderNumber="18" Role="Timing" /><def:Class Name="INTERVENTIONS" /><def:leaf ID="LF.EC" xlink:href="ec.ndjson"><def:title>ec.ndjson</def:title></def:leaf></ItemGroupDef><ItemGroupDef OID="IG.AE" Name="AE" Repeating="Yes" def:Structure="One record per adverse event per subject" IsReferenceData="No" SASDatasetName="AE" Domain="AE" Purpose="Tabulation" def:StandardOID="STD.SDTMIG"><Description><TranslatedText>Adverse Events</TranslatedText></Description><ItemRef ItemOID="IT.AE.STUDYID" Mandatory="Yes" OrderNumber="1" Role="Identifier" /><ItemRef ItemOID="IT.AE.DOMAIN" Mandatory="Yes" OrderNumber="2" Role="Identifier" /><ItemRef ItemOID="IT.AE.USUBJID" Mandatory="Yes" OrderNumber="3" Role="Identifier" /><ItemRef ItemOID="IT.AE.AESEQ" Mandatory="Yes" OrderNumber="4" Role="Identifier" /><ItemRef ItemOID="IT.AE.AETERM" Mandatory="Yes" OrderNumber="5" Role="Topic" /><ItemRef ItemOID="IT.AE.AELLT" Mandatory="No" OrderNumber="6" Role="Variable Qualifier" /><ItemRef ItemOID="IT.AE.AELLTCD" Mandatory="No" OrderNumber="7" Role="Variable Qualifier" /><ItemRef ItemOID="IT.AE.AEDECOD" Mandatory="Yes" OrderNumber="8" Role="Synonym Qualifier" /><ItemRef ItemOID="IT.AE.AEPTCD" Mandatory="No" OrderNumber="9" Role="Variable Qualifier" /><ItemRef ItemOID="IT.AE.AEHLT" Mandatory="No" OrderNumber="10" Role="Variable Qualifier" /><ItemRef ItemOID="IT.AE.AEHLTCD" Mandatory="No" OrderNumber="11" Role="Variable Qualifier" /><ItemRef ItemOID="IT.AE.AEHLGT" Mandatory="No" OrderNumber="12" Role="Variable Qualifier" /><ItemRef ItemOID="IT.AE.AEHLGTCD" Mandatory="No" OrderNumber="13" Role="Variable Qualifier" /><ItemRef ItemOID="IT.AE.AECAT" Mandatory="No" OrderNumber="14" Role="Grouping Qualifier" /><ItemRef ItemOID="IT.AE.AESCAT" Mandatory="No" OrderNumber="15" Role="Grouping Qualifier" /><ItemRef ItemOID="IT.AE.AEPRESP" Mandatory="No" OrderNumber="16" Role="Variable Qualifier" /><ItemRef ItemOID="IT.AE.AEBODSYS" Mandatory="No" OrderNumber="17" Role="Record Qualifier" /><ItemRef ItemOID="IT.AE.AEBDSYCD" Mandatory="No" OrderNumber="18" Role="Variable Qualifier" /><ItemRef ItemOID="IT.AE.AESOC" Mandatory="No" OrderNumber="19" Role="Variable Qualifier" /><ItemRef ItemOID="IT.AE.AESOCCD" Mandatory="No" OrderNumber="20" Role="Variable Qualifier" /><ItemRef ItemOID="IT.AE.AELOC" Mandatory="No" OrderNumber="21" Role="Record Qualifier" /><ItemRef ItemOID="IT.AE.AESEV" Mandatory="No" OrderNumber="22" Role="Record Qualifier" /><ItemRef ItemOID="IT.AE.AESER" Mandatory="No" OrderNumber="23" Role="Record Qualifier" /><ItemRef ItemOID="IT.AE.AEACN" Mandatory="No" OrderNumber="24" Role="Record Qualifier" /><ItemRef ItemOID="IT.AE.AEACNOTH" Mandatory="No" OrderNumber="25" Role="Record Qualifier" /><ItemRef ItemOID="IT.AE.AEREL" Mandatory="No" OrderNumber="26" Role="Record Qualifier" /><ItemRef ItemOID="IT.AE.AERELNST" Mandatory="No" OrderNumber="27" Role="Record Qualifier" /><ItemRef ItemOID="IT.AE.AEPATT" Mandatory="No" OrderNumber="28" Role="Record Qualifier" /><ItemRef ItemOID="IT.AE.AEOUT" Mandatory="No" OrderNumber="29" Role="Record Qualifier" /><ItemRef ItemOID="IT.AE.AESCAN" Mandatory="No" OrderNumber="30" Role="Record Qualifier" /><ItemRef ItemOID="IT.AE.AESCONG" Mandatory="No" OrderNumber="31" Role="Record Qualifier" /><ItemRef ItemOID="IT.AE.AESDISAB" Mandatory="No" OrderNumber="32" Role="Record Qualifier" /><ItemRef ItemOID="IT.AE.AESDTH" Mandatory="No" OrderNumber="33" Role="Record Qualifier" /><ItemRef ItemOID="IT.AE.AESHOSP" Mandatory="No" OrderNumber="34" Role="Record Qualifier" /><ItemRef ItemOID="IT.AE.AESLIFE" Mandatory="No" OrderNumber="35" Role="Record Qualifier" /><ItemRef ItemOID="IT.AE.AESOD" Mandatory="No" OrderNumber="36" Role="Record Qualifier" /><ItemRef ItemOID="IT.AE.AESMIE" Mandatory="No" OrderNumber="37" Role="Record Qualifier" /><ItemRef ItemOID="IT.AE.AECONTRT" Mandatory="No" OrderNumber="38" Role="Record Qualifier" /><ItemRef ItemOID="IT.AE.AETOXGR" Mandatory="No" OrderNumber="39" Role="Record Qualifier" /><ItemRef ItemOID="IT.AE.AESTDTC" Mandatory="No" OrderNumber="40" Role="Timing" /><ItemRef ItemOID="IT.AE.AEENDTC" Mandatory="No" OrderNumber="41" Role="Timing" /><ItemRef ItemOID="IT.AE.AEENRF" Mandatory="No" OrderNumber="42" Role="Timing" /><ItemRef ItemOID="IT.AE.AEENRTPT" Mandatory="No" OrderNumber="43" Role="Timing" /><ItemRef ItemOID="IT.AE.AEENTPT" Mandatory="No" OrderNumber="44" Role="Timing" /><def:Class Name="EVENTS" /><def:leaf ID="LF.AE" xlink:href="ae.ndjson"><def:title>ae.ndjson</def:title></def:leaf></ItemGroupDef><ItemGroupDef OID="IG.TS" Name="TS" Repeating="No" def:Structure="One record per trial summary parameter value" IsReferenceData="Yes" SASDatasetName="TS" Domain="TS" Purpose="Tabulation" def:StandardOID="STD.SDTMIG"><Description><TranslatedText>Trial Summary</TranslatedText></Description><ItemRef ItemOID="IT.TS.STUDYID" Mandatory="Yes" OrderNumber="1" Role="Identifier" /><ItemRef ItemOID="IT.TS.DOMAIN" Mandatory="Yes" OrderNumber="2" Role="Identifier" /><ItemRef ItemOID="IT.TS.TSSEQ" Mandatory="Yes" OrderNumber="3" Role="Identifier" /><ItemRef ItemOID="IT.TS.TSPARMCD" Mandatory="Yes" OrderNumber="4" Role="Topic" /><ItemRef ItemOID="IT.TS.TSPARM" Mandatory="Yes" OrderNumber="5" Role="Synonym Qualifier" /><ItemRef ItemOID="IT.TS.TSVAL" Mandatory="No" OrderNumber="6" Role="Result Qualifier" /><ItemRef ItemOID="IT.TS.TSVALCD" Mandatory="No" OrderNumber="7" Role="Result Qualifier" /><ItemRef ItemOID="IT.TS.TSVCDREF" Mandatory="No" OrderNumber="8" Role="Result Qualifier" /><ItemRef ItemOID="IT.TS.TSVCDVER" Mandatory="No" OrderNumber="9" Role="Result Qualifier" /><def:Class Name="TRIAL DESIGN" /><def:leaf ID="LF.TS" xlink:href="ts.ndjson"><def:title>ts.ndjson</def:title></def:leaf></ItemGroupDef><ItemGroupDef OID="IG.TA" Name="TA" Repeating="No" def:Structure="One record per planned Element per Arm" IsReferenceData="Yes" SASDatasetName="TA" Domain="TA" Purpose="Tabulation" def:StandardOID="STD.SDTMIG"><Description><TranslatedText>Trial Arms</TranslatedText></Description><ItemRef ItemOID="IT.TA.STUDYID" Mandatory="Yes" OrderNumber="1" Role="Identifier" /><ItemRef ItemOID="IT.TA.DOMAIN" Mandatory="Yes" OrderNumber="2" Role="Identifier" /><ItemRef ItemOID="IT.TA.ARMCD" Mandatory="Yes" OrderNumber="3" Role="Topic" /><ItemRef ItemOID="IT.TA.ARM" Mandatory="Yes" OrderNumber="4" Role="Synonym Qualifier" /><ItemRef ItemOID="IT.TA.TAETORD" Mandatory="Yes" OrderNumber="5" Role="Timing" /><ItemRef ItemOID="IT.TA.ETCD" Mandatory="Yes" OrderNumber="6" Role="Record Qualifier" /><ItemRef ItemOID="IT.TA.ELEMENT" Mandatory="No" OrderNumber="7" Role="Synonym Qualifier" /><ItemRef ItemOID="IT.TA.TABRANCH" Mandatory="No" OrderNumber="8" Role="Rule" /><ItemRef ItemOID="IT.TA.TATRANS" Mandatory="No" OrderNumber="9" Role="Rule" /><ItemRef ItemOID="IT.TA.EPOCH" Mandatory="Yes" OrderNumber="10" Role="Timing" /><def:Class Name="TRIAL DESIGN" /><def:leaf ID="LF.TA" xlink:href="ta.ndjson"><def:title>ta.ndjson</def:title></def:leaf></ItemGroupDef><ItemGroupDef OID="IG.TE" Name="TE" Repeating="No" def:Structure="One record per planned Element" IsReferenceData="Yes" SASDatasetName="TE" Domain="TE" Purpose="Tabulation" def:StandardOID="STD.SDTMIG"><Description><TranslatedText>Trial Elements</TranslatedText></Description><ItemRef ItemOID="IT.TE.STUDYID" Mandatory="Yes" OrderNumber="1" Role="Identifier" /><ItemRef ItemOID="IT.TE.DOMAIN" Mandatory="Yes" OrderNumber="2" Role="Identifier" /><ItemRef ItemOID="IT.TE.ETCD" Mandatory="Yes" OrderNumber="3" Role="Topic" /><ItemRef ItemOID="IT.TE.ELEMENT" Mandatory="Yes" OrderNumber="4" Role="Synonym Qualifier" /><ItemRef ItemOID="IT.TE.TESTRL" Mandatory="Yes" OrderNumber="5" Role="Rule" /><def:Class Name="TRIAL DESIGN" /><def:leaf ID="LF.TE" xlink:href="te.ndjson"><def:title>te.ndjson</def:title></def:leaf></ItemGroupDef><ItemGroupDef OID="IG.TI" Name="TI" Repeating="No" def:Structure="One record per I/E criterion" IsReferenceData="Yes" SASDatasetName="TI" Domain="TI" Purpose="Tabulation" def:StandardOID="STD.SDTMIG"><Description><TranslatedText>Trial Inclusion/Exclusion Criteria</TranslatedText></Description><ItemRef ItemOID="IT.TI.STUDYID" Mandatory="Yes" OrderNumber="1" Role="Identifier" /><ItemRef ItemOID="IT.TI.DOMAIN" Mandatory="Yes" OrderNumber="2" Role="Identifier" /><ItemRef ItemOID="IT.TI.IETESTCD" Mandatory="Yes" OrderNumber="3" Role="Topic" /><ItemRef ItemOID="IT.TI.IETEST" Mandatory="Yes" OrderNumber="4" Role="Synonym Qualifier" /><ItemRef ItemOID="IT.TI.IECAT" Mandatory="Yes" OrderNumber="5" Role="Grouping Qualifier" /><def:Class Name="TRIAL DESIGN" /><def:leaf ID="LF.TI" xlink:href="ti.ndjson"><def:title>ti.ndjson</def:title></def:leaf></ItemGroupDef><ItemGroupDef OID="IG.TV" Name="TV" Repeating="No" def:Structure="One record per planned Visit per Arm" IsReferenceData="Yes" SASDatasetName="TV" Domain="TV" Purpose="Tabulation" def:StandardOID="STD.SDTMIG"><Description><TranslatedText>Trial Visits</TranslatedText></Description><ItemRef ItemOID="IT.TV.STUDYID" Mandatory="Yes" OrderNumber="1" Role="Identifier" /><ItemRef ItemOID="IT.TV.DOMAIN" Mandatory="Yes" OrderNumber="2" Role="Identifier" /><ItemRef ItemOID="IT.TV.VISITNUM" Mandatory="Yes" OrderNumber="3" Role="Topic" /><ItemRef ItemOID="IT.TV.VISIT" Mandatory="Yes" OrderNumber="4" Role="Synonym Qualifier" /><ItemRef ItemOID="IT.TV.VISITDY" Mandatory="No" OrderNumber="5" Role="Timing" /><ItemRef ItemOID="IT.TV.ARMCD" Mandatory="No" OrderNumber="6" Role="Record Qualifier" /><ItemRef ItemOID="IT.TV.ARM" Mandatory="No" OrderNumber="7" Role="Synonym Qualifier" /><ItemRef ItemOID="IT.TV.TVSTRL" Mandatory="Yes" OrderNumber="8" Role="Rule" /><ItemRef ItemOID="IT.TV.TVENRL" Mandatory="No" OrderNumber="9" Role="Rule" /><def:Class Name="TRIAL DESIGN" /><def:leaf ID="LF.TV" xlink:href="tv.ndjson"><def:title>tv.ndjson</def:title></def:leaf></ItemGroupDef><ItemGroupDef OID="IG.SV" Name="SV" Repeating="Yes" def:Structure="One record per actual or planned visit per subject" IsReferenceData="No" SASDatasetName="SV" Domain="SV" Purpose="Tabulation" def:StandardOID="STD.SDTMIG"><Description><TranslatedText>Subject Visits</TranslatedText></Description><ItemRef ItemOID="IT.SV.STUDYID" Mandatory="Yes" OrderNumber="1" Role="Identifier" /><ItemRef ItemOID="IT.SV.DOMAIN" Mandatory="Yes" OrderNumber="2" Role="Identifier" /><ItemRef ItemOID="IT.SV.USUBJID" Mandatory="Yes" OrderNumber="3" Role="Identifier" /><ItemRef ItemOID="IT.SV.VISITNUM" Mandatory="Yes" OrderNumber="4" Role="Topic" /><ItemRef ItemOID="IT.SV.VISIT" Mandatory="No" OrderNumber="5" Role="Synonym Qualifier" /><ItemRef ItemOID="IT.SV.SVPRESP" Mandatory="No" OrderNumber="6" Role="Variable Qualifier" /><ItemRef ItemOID="IT.SV.SVOCCUR" Mandatory="No" OrderNumber="7" Role="Record Qualifier" /><ItemRef ItemOID="IT.SV.SVCNTMOD" Mandatory="No" OrderNumber="8" Role="Record Qualifier" /><ItemRef ItemOID="IT.SV.SVSTDTC" Mandatory="No" OrderNumber="9" Role="Timing" /><ItemRef ItemOID="IT.SV.SVENDTC" Mandatory="No" OrderNumber="10" Role="Timing" /><def:Class Name="SPECIAL PURPOSE" /><def:leaf ID="LF.SV" xlink:href="sv.ndjson"><def:title>sv.ndjson</def:title></def:leaf></ItemGroupDef><ItemGroupDef OID="IG.IE" Name="IE" Repeating="Yes" def:Structure="One record per inclusion/exclusion criterion not met per subject" IsReferenceData="No" SASDatasetName="IE" Domain="IE" Purpose="Tabulation" def:StandardOID="STD.SDTMIG"><Description><TranslatedText>Inclusion/Exclusion Criteria Not Met</TranslatedText></Description><ItemRef ItemOID="IT.IE.STUDYID" Mandatory="Yes" OrderNumber="1" Role="Identifier" /><ItemRef ItemOID="IT.IE.DOMAIN" Mandatory="Yes" OrderNumber="2" Role="Identifier" /><ItemRef ItemOID="IT.IE.USUBJID" Mandatory="Yes" OrderNumber="3" Role="Identifier" /><ItemRef ItemOID="IT.IE.IESEQ" Mandatory="Yes" OrderNumber="4" Role="Identifier" /><ItemRef ItemOID="IT.IE.IETESTCD" Mandatory="Yes" OrderNumber="5" Role="Topic" /><ItemRef ItemOID="IT.IE.IETEST" Mandatory="Yes" OrderNumber="6" Role="Synonym Qualifier" /><ItemRef ItemOID="IT.IE.IECAT" Mandatory="Yes" OrderNumber="7" Role="Grouping Qualifier" /><ItemRef ItemOID="IT.IE.IEORRES" Mandatory="Yes" OrderNumber="8" Role="Result Qualifier" /><ItemRef ItemOID="IT.IE.IESTRESC" Mandatory="Yes" OrderNumber="9" Role="Result Qualifier" /><def:Class Name="FINDINGS" /><def:leaf ID="LF.IE" xlink:href="ie.ndjson"><def:title>ie.ndjson</def:title></def:leaf></ItemGroupDef><ItemGroupDef OID="IG.SE" Name="SE" Repeating="Yes" def:Structure="One record per actual Element per subject" IsReferenceData="No" SASDatasetName="SE" Domain="SE" Purpose="Tabulation" def:StandardOID="STD.SDTMIG"><Description><TranslatedText>Subject Elements</TranslatedText></Description><ItemRef ItemOID="IT.SE.STUDYID" Mandatory="Yes" OrderNumber="1" Role="Identifier" /><ItemRef ItemOID="IT.SE.DOMAIN" Mandatory="Yes" OrderNumber="2" Role="Identifier" /><ItemRef ItemOID="IT.SE.USUBJID" Mandatory="Yes" OrderNumber="3" Role="Identifier" /><ItemRef ItemOID="IT.SE.SESEQ" Mandatory="Yes" OrderNumber="4" Role="Identifier" /><ItemRef ItemOID="IT.SE.ETCD" Mandatory="Yes" OrderNumber="5" Role="Topic" /><ItemRef ItemOID="IT.SE.ELEMENT" Mandatory="No" OrderNumber="6" Role="Synonym Qualifier" /><ItemRef ItemOID="IT.SE.EPOCH" Mandatory="No" OrderNumber="7" Role="Timing" /><ItemRef ItemOID="IT.SE.SESTDTC" Mandatory="Yes" OrderNumber="8" Role="Timing" /><ItemRef ItemOID="IT.SE.SEENDTC" Mandatory="No" OrderNumber="9" Role="Timing" /><def:Class Name="SPECIAL PURPOSE" /><def:leaf ID="LF.SE" xlink:href="se.ndjson"><def:title>se.ndjson</def:title></def:leaf></ItemGroupDef><ItemDef OID="IT.DS.STUDYID" Name="STUDYID" DataType="text" Length="__PLACEHOLDER__" SASFieldName="STUDYID"><Description><TranslatedText>Study Identifier</TranslatedText></Description><def:Origin Type="__PLACEHOLDER__" Source="__PLACEHOLDER__" /></ItemDef><ItemDef OID="IT.DS.DOMAIN" Name="DOMAIN" DataType="text" Length="__PLACEHOLDER__" SASFieldName="DOMAIN"><Description><TranslatedText>Domain Abbreviation</TranslatedText></Description><def:Origin Type="__PLACEHOLDER__" Source="__PLACEHOLDER__" /></ItemDef><ItemDef OID="IT.DS.USUBJID" Name="USUBJID" DataType="text" Length="__PLACEHOLDER__" SASFieldName="USUBJID"><Description><TranslatedText>Unique Subject Identifier</TranslatedText></Description><def:Origin Type="__PLACEHOLDER__" Source="__PLACEHOLDER__" /></ItemDef><ItemDef OID="IT.DS.DSSEQ" Name="DSSEQ" DataType="integer" Length="__PLACEHOLDER__" SASFieldName="DSSEQ"><Description><TranslatedText>Sequence Number</TranslatedText></Description><def:Origin Type="__PLACEHOLDER__" Source="__PLACEHOLDER__" /></ItemDef><ItemDef OID="IT.DS.DSTERM" Name="DSTERM" DataType="text" Length="200" SASFieldName="DSTERM"><Description><TranslatedText>Reported Term for the Disposition Event</TranslatedText></Description><def:Origin Type="Collected" Source="Investigator"><def:DocumentRef leafID="LF.acrf" /></def:Origin></ItemDef><ItemDef OID="IT.DS.DSDECOD" Name="DSDECOD" DataType="text" Length="200" SASFieldName="DSDECOD"><Description><TranslatedText>Standardized Disposition Term</TranslatedText></Description><CodeListRef CodeListOID="CL.NCOMPLT" /><def:Origin Type="Assigned" Source="Sponsor" /></ItemDef><ItemDef OID="IT.DS.DSCAT" Name="DSCAT" DataType="text" Length="200" SASFieldName="DSCAT"><Description><TranslatedText>Category for Disposition Event</TranslatedText></Description><CodeListRef CodeListOID="CL.DSCAT" /><def:Origin Type="Assigned" Source="Sponsor" /></ItemDef><ItemDef OID="IT.DS.DSSCAT" Name="DSSCAT" DataType="text" Length="200" SASFieldName="DSSCAT"><Description><TranslatedText>Subcategory for Disposition Event</TranslatedText></Description><CodeListRef CodeListOID="CL.DSSCAT" /><def:Origin Type="Assigned" Source="Sponsor" /></ItemDef><ItemDef OID="IT.DS.DSSTDTC" Name="DSSTDTC" DataType="datetime" SASFieldName="DSSTDTC"><Description><TranslatedText>Start Date/Time of Disposition Event</TranslatedText></Description><def:Origin Type="Collected" Source="Investigator"><def:DocumentRef leafID="LF.acrf" /></def:Origin></ItemDef><ItemDef OID="IT.DS.DSSTDY" Name="DSSTDY" DataType="integer" Length="__PLACEHOLDER__" SASFieldName="DSSTDY"><Description><TranslatedText>Study Day of Start of Disposition Event</TranslatedText></Description><def:Origin Type="__PLACEHOLDER__" Source="__PLACEHOLDER__" /></ItemDef><ItemDef OID="IT.DM.STUDYID" Name="STUDYID" DataType="text" Length="__PLACEHOLDER__" SASFieldName="STUDYID"><Description><TranslatedText>Study Identifier</TranslatedText></Description><def:Origin Type="__PLACEHOLDER__" Source="__PLACEHOLDER__" /></ItemDef><ItemDef OID="IT.DM.DOMAIN" Name="DOMAIN" DataType="text" Length="__PLACEHOLDER__" SASFieldName="DOMAIN"><Description><TranslatedText>Domain Abbreviation</TranslatedText></Description><def:Origin Type="__PLACEHOLDER__" Source="__PLACEHOLDER__" /></ItemDef><ItemDef OID="IT.DM.USUBJID" Name="USUBJID" DataType="text" Length="__PLACEHOLDER__" SASFieldName="USUBJID"><Description><TranslatedText>Unique Subject Identifier</TranslatedText></Description><def:Origin Type="__PLACEHOLDER__" Source="__PLACEHOLDER__" /></ItemDef><ItemDef OID="IT.DM.SUBJID" Name="SUBJID" DataType="text" Length="__PLACEHOLDER__" SASFieldName="SUBJID"><Description><TranslatedText>Subject Identifier for the Study</TranslatedText></Description><def:Origin Type="__PLACEHOLDER__" Source="__PLACEHOLDER__" /></ItemDef><ItemDef OID="IT.DM.RFSTDTC" Name="RFSTDTC" DataType="datetime" SASFieldName="RFSTDTC"><Description><TranslatedText>Subject Reference Start Date/Time</TranslatedText></Description><def:Origin Type="__PLACEHOLDER__" Source="__PLACEHOLDER__" /></ItemDef><ItemDef OID="IT.DM.RFENDTC" Name="RFENDTC" DataType="datetime" SASFieldName="RFENDTC"><Description><TranslatedText>Subject Reference End Date/Time</TranslatedText></Description><def:Origin Type="__PLACEHOLDER__" Source="__PLACEHOLDER__" /></ItemDef><ItemDef OID="IT.DM.RFXSTDTC" Name="RFXSTDTC" DataType="datetime" SASFieldName="RFXSTDTC"><Description><TranslatedText>Date/Time of First Study Treatment</TranslatedText></Description><def:Origin Type="__PLACEHOLDER__" Source="__PLACEHOLDER__" /></ItemDef><ItemDef OID="IT.DM.RFXENDTC" Name="RFXENDTC" DataType="datetime" SASFieldName="RFXENDTC"><Description><TranslatedText>Date/Time of Last Study Treatment</TranslatedText></Description><def:Origin Type="__PLACEHOLDER__" Source="__PLACEHOLDER__" /></ItemDef><ItemDef OID="IT.DM.RFICDTC" Name="RFICDTC" DataType="datetime" SASFieldName="RFICDTC"><Description><TranslatedText>Date/Time of Informed Consent</TranslatedText></Description><def:Origin Type="__PLACEHOLDER__" Source="__PLACEHOLDER__" /></ItemDef><ItemDef OID="IT.DM.RFPENDTC" Name="RFPENDTC" DataType="datetime" SASFieldName="RFPENDTC"><Description><TranslatedText>Date/Time of End of Participation</TranslatedText></Description><def:Origin Type="__PLACEHOLDER__" Source="__PLACEHOLDER__" /></ItemDef><ItemDef OID="IT.DM.DTHDTC" Name="DTHDTC" DataType="datetime" SASFieldName="DTHDTC"><Description><TranslatedText>Date/Time of Death</TranslatedText></Description><def:Origin Type="__PLACEHOLDER__" Source="__PLACEHOLDER__" /></ItemDef><ItemDef OID="IT.DM.DTHFL" Name="DTHFL" DataType="text" Length="__PLACEHOLDER__" SASFieldName="DTHFL"><Description><TranslatedText>Subject Death Flag</TranslatedText></Description><CodeListRef CodeListOID="CL.NY" /><def:Origin Type="__PLACEHOLDER__" Source="__PLACEHOLDER__" /></ItemDef><ItemDef OID="IT.DM.SITEID" Name="SITEID" DataType="text" Length="__PLACEHOLDER__" SASFieldName="SITEID"><Description><TranslatedText>Study Site Identifier</TranslatedText></Description><def:Origin Type="__PLACEHOLDER__" Source="__PLACEHOLDER__" /></ItemDef><ItemDef OID="IT.DM.AGE" Name="AGE" DataType="float" Length="6" SignificantDigits="2" SASFieldName="AGE" def:DisplayFormat="3.2"><Description><TranslatedText>Age</TranslatedText></Description><def:Origin Type="Collected" Source="Investigator"><def:DocumentRef leafID="LF.acrf" /></def:Origin></ItemDef><ItemDef OID="IT.DM.AGEU" Name="AGEU" DataType="text" Length="20" SASFieldName="AGEU"><Description><TranslatedText>Age Units</TranslatedText></Description><CodeListRef CodeListOID="CL.AGEU" /><def:Origin Type="Collected" Source="Investigator"><def:DocumentRef leafID="LF.acrf" /></def:Origin></ItemDef><ItemDef OID="IT.DM.SEX" Name="SEX" DataType="text" Length="100" SASFieldName="SEX"><Description><TranslatedText>Sex</TranslatedText></Description><CodeListRef CodeListOID="CL.SEX" /><def:Origin Type="Collected" Source="Investigator"><def:DocumentRef leafID="LF.acrf" /></def:Origin></ItemDef><ItemDef OID="IT.DM.RACE" Name="RACE" DataType="text" Length="100" SASFieldName="RACE"><Description><TranslatedText>Race</TranslatedText></Description><CodeListRef CodeListOID="CL.RACE" /><def:Origin Type="Collected" Source="Investigator"><def:DocumentRef leafID="LF.acrf" /></def:Origin></ItemDef><ItemDef OID="IT.DM.ETHNIC" Name="ETHNIC" DataType="text" Length="100" SASFieldName="ETHNIC"><Description><TranslatedText>Ethnicity</TranslatedText></Description><CodeListRef CodeListOID="CL.ETHNIC" /><def:Origin Type="Collected" Source="Investigator"><def:DocumentRef leafID="LF.acrf" /></def:Origin></ItemDef><ItemDef OID="IT.DM.ARMCD" Name="ARMCD" DataType="text" Length="__PLACEHOLDER__" SASFieldName="ARMCD"><Description><TranslatedText>Planned Arm Code</TranslatedText></Description><def:Origin Type="__PLACEHOLDER__" Source="__PLACEHOLDER__" /></ItemDef><ItemDef OID="IT.DM.ARM" Name="ARM" DataType="text" Length="__PLACEHOLDER__" SASFieldName="ARM"><Description><TranslatedText>Description of Planned Arm</TranslatedText></Description><def:Origin Type="__PLACEHOLDER__" Source="__PLACEHOLDER__" /></ItemDef><ItemDef OID="IT.DM.ACTARMCD" Name="ACTARMCD" DataType="text" Length="__PLACEHOLDER__" SASFieldName="ACTARMCD"><Description><TranslatedText>Actual Arm Code</TranslatedText></Description><def:Origin Type="__PLACEHOLDER__" Source="__PLACEHOLDER__" /></ItemDef><ItemDef OID="IT.DM.ACTARM" Name="ACTARM" DataType="text" Length="__PLACEHOLDER__" SASFieldName="ACTARM"><Description><TranslatedText>Description of Actual Arm</TranslatedText></Description><def:Origin Type="__PLACEHOLDER__" Source="__PLACEHOLDER__" /></ItemDef><ItemDef OID="IT.DM.ARMNRS" Name="ARMNRS" DataType="text" Length="__PLACEHOLDER__" SASFieldName="ARMNRS"><Description><TranslatedText>Reason Arm and/or Actual Arm is Null</TranslatedText></Description><CodeListRef CodeListOID="CL.ARMNULRS" /><def:Origin Type="__PLACEHOLDER__" Source="__PLACEHOLDER__" /></ItemDef><ItemDef OID="IT.DM.ACTARMUD" Name="ACTARMUD" DataType="text" Length="__PLACEHOLDER__" SASFieldName="ACTARMUD"><Description><TranslatedText>Description of Unplanned Actual Arm</TranslatedText></Description><def:Origin Type="__PLACEHOLDER__" Source="__PLACEHOLDER__" /></ItemDef><ItemDef OID="IT.DM.COUNTRY" Name="COUNTRY" DataType="text" Length="__PLACEHOLDER__" SASFieldName="COUNTRY"><Description><TranslatedText>Country</TranslatedText></Description><def:Origin Type="__PLACEHOLDER__" Source="__PLACEHOLDER__" /></ItemDef><ItemDef OID="IT.DM.DMDTC" Name="DMDTC" DataType="datetime" SASFieldName="DMDTC"><Description><TranslatedText>Date/Time of Collection</TranslatedText></Description><def:Origin Type="__PLACEHOLDER__" Source="__PLACEHOLDER__" /></ItemDef><ItemDef OID="IT.SC.STUDYID" Name="STUDYID" DataType="text" Length="__PLACEHOLDER__" SASFieldName="STUDYID"><Description><TranslatedText>Study Identifier</TranslatedText></Description><def:Origin Type="__PLACEHOLDER__" Source="__PLACEHOLDER__" /></ItemDef><ItemDef OID="IT.SC.DOMAIN" Name="DOMAIN" DataType="text" Length="__PLACEHOLDER__" SASFieldName="DOMAIN"><Description><TranslatedText>Domain Abbreviation</TranslatedText></Description><def:Origin Type="__PLACEHOLDER__" Source="__PLACEHOLDER__" /></ItemDef><ItemDef OID="IT.SC.USUBJID" Name="USUBJID" DataType="text" Length="__PLACEHOLDER__" SASFieldName="USUBJID"><Description><TranslatedText>Unique Subject Identifier</TranslatedText></Description><def:Origin Type="__PLACEHOLDER__" Source="__PLACEHOLDER__" /></ItemDef><ItemDef OID="IT.SC.SCSEQ" Name="SCSEQ" DataType="integer" Length="__PLACEHOLDER__" SASFieldName="SCSEQ"><Description><TranslatedText>Sequence Number</TranslatedText></Description><def:Origin Type="__PLACEHOLDER__" Source="__PLACEHOLDER__" /></ItemDef><ItemDef OID="IT.SC.SCTESTCD" Name="SCTESTCD" DataType="text" Length="__PLACEHOLDER__" SASFieldName="SCTESTCD"><Description><TranslatedText>Subject Characteristic Short Name</TranslatedText></Description><CodeListRef CodeListOID="CL.SCTESTCD" /><def:Origin Type="__PLACEHOLDER__" Source="__PLACEHOLDER__" /></ItemDef><ItemDef OID="IT.SC.SCTEST" Name="SCTEST" DataType="text" Length="__PLACEHOLDER__" SASFieldName="SCTEST"><Description><TranslatedText>Subject Characteristic</TranslatedText></Description><CodeListRef CodeListOID="CL.SCTEST" /><def:Origin Type="__PLACEHOLDER__" Source="__PLACEHOLDER__" /></ItemDef><ItemDef OID="IT.SC.SCORRES" Name="SCORRES" DataType="text" Length="100" SASFieldName="SCORRES"><Description><TranslatedText>Result or Finding in Original Units</TranslatedText></Description><def:Origin Type="Collected" Source="Investigator"><def:DocumentRef leafID="LF.acrf" /></def:Origin><def:ValueListRef ValueListOID="VL.SC.SCORRES" /></ItemDef><ItemDef OID="IT.SC.SCORRESU" Name="SCORRESU" DataType="text" Length="__PLACEHOLDER__" SASFieldName="SCORRESU"><Description><TranslatedText>Original Units</TranslatedText></Description><CodeListRef CodeListOID="CL.UNIT" /><def:Origin Type="__PLACEHOLDER__" Source="__PLACEHOLDER__" /><def:ValueListRef ValueListOID="VL.SC.SCORRESU" /></ItemDef><ItemDef OID="IT.SC.SCSTRESC" Name="SCSTRESC" DataType="text" Length="100" SASFieldName="SCSTRESC"><Description><TranslatedText>Character Result/Finding in Std Format</TranslatedText></Description><def:Origin Type="Assigned" Source="Sponsor" /></ItemDef><ItemDef OID="IT.SC.SCSTRESN" Name="SCSTRESN" DataType="text" Length="100" SASFieldName="SCSTRESN"><Description><TranslatedText>Numeric Result/Finding in Standard Units</TranslatedText></Description><def:Origin Type="Assigned" Source="Sponsor" /></ItemDef><ItemDef OID="IT.SC.SCSTRESU" Name="SCSTRESU" DataType="text" Length="__PLACEHOLDER__" SASFieldName="SCSTRESU"><Description><TranslatedText>Standard Units</TranslatedText></Description><CodeListRef CodeListOID="CL.UNIT" /><def:Origin Type="__PLACEHOLDER__" Source="__PLACEHOLDER__" /></ItemDef><ItemDef OID="IT.SC.SCDTC" Name="SCDTC" DataType="datetime" SASFieldName="SCDTC"><Description><TranslatedText>Date/Time of Collection</TranslatedText></Description><def:Origin Type="__PLACEHOLDER__" Source="__PLACEHOLDER__" /></ItemDef><ItemDef OID="IT.MH.STUDYID" Name="STUDYID" DataType="text" Length="__PLACEHOLDER__" SASFieldName="STUDYID"><Description><TranslatedText>Study Identifier</TranslatedText></Description><def:Origin Type="__PLACEHOLDER__" Source="__PLACEHOLDER__" /></ItemDef><ItemDef OID="IT.MH.DOMAIN" Name="DOMAIN" DataType="text" Length="__PLACEHOLDER__" SASFieldName="DOMAIN"><Description><TranslatedText>Domain Abbreviation</TranslatedText></Description><def:Origin Type="__PLACEHOLDER__" Source="__PLACEHOLDER__" /></ItemDef><ItemDef OID="IT.MH.USUBJID" Name="USUBJID" DataType="text" Length="__PLACEHOLDER__" SASFieldName="USUBJID"><Description><TranslatedText>Unique Subject Identifier</TranslatedText></Description><def:Origin Type="__PLACEHOLDER__" Source="__PLACEHOLDER__" /></ItemDef><ItemDef OID="IT.MH.MHSEQ" Name="MHSEQ" DataType="integer" Length="__PLACEHOLDER__" SASFieldName="MHSEQ"><Description><TranslatedText>Sequence Number</TranslatedText></Description><def:Origin Type="__PLACEHOLDER__" Source="__PLACEHOLDER__" /></ItemDef><ItemDef OID="IT.MH.MHTERM" Name="MHTERM" DataType="text" Length="200" SASFieldName="MHTERM"><Description><TranslatedText>Reported Term for the Medical History</TranslatedText></Description><def:Origin Type="Assigned" Source="Sponsor" /></ItemDef><ItemDef OID="IT.MH.MHDECOD" Name="MHDECOD" DataType="text" Length="200" SASFieldName="MHDECOD"><Description><TranslatedText>Dictionary-Derived Term</TranslatedText></Description><def:Origin Type="Assigned" Source="Sponsor" /></ItemDef><ItemDef OID="IT.MH.MHPRESP" Name="MHPRESP" DataType="text" Length="1" SASFieldName="MHPRESP"><Description><TranslatedText>Medical History Event Pre-Specified</TranslatedText></Description><CodeListRef CodeListOID="CL.NY" /><def:Origin Type="Assigned" Source="Sponsor" /></ItemDef><ItemDef OID="IT.MH.MHOCCUR" Name="MHOCCUR" DataType="text" Length="1" SASFieldName="MHOCCUR"><Description><TranslatedText>Medical History Occurrence</TranslatedText></Description><CodeListRef CodeListOID="CL.NY" /><def:Origin Type="Collected" Source="Investigator"><def:DocumentRef leafID="LF.acrf" /></def:Origin></ItemDef><ItemDef OID="IT.MH.MHENRF" Name="MHENRF" DataType="text" Length="20" SASFieldName="MHENRF"><Description><TranslatedText>End Relative to Reference Period</TranslatedText></Description><CodeListRef CodeListOID="CL.STENRF" /><def:Origin Type="Assigned" Source="Sponsor" /></ItemDef><ItemDef OID="IT.MH.MHENRTPT" Name="MHENRTPT" DataType="text" Length="20" SASFieldName="MHENRTPT"><Description><TranslatedText>End Relative to Reference Time Point</TranslatedText></Description><CodeListRef CodeListOID="CL.STENRF" /><def:Origin Type="Assigned" Source="Sponsor" /></ItemDef><ItemDef OID="IT.MH.MHENTPT" Name="MHENTPT" DataType="text" Length="20" SASFieldName="MHENTPT"><Description><TranslatedText>End Reference Time Point</TranslatedText></Description><def:Origin Type="Assigned" Source="Sponsor" /></ItemDef><ItemDef OID="IT.SU.STUDYID" Name="STUDYID" DataType="text" Length="__PLACEHOLDER__" SASFieldName="STUDYID"><Description><TranslatedText>Study Identifier</TranslatedText></Description><def:Origin Type="__PLACEHOLDER__" Source="__PLACEHOLDER__" /></ItemDef><ItemDef OID="IT.SU.DOMAIN" Name="DOMAIN" DataType="text" Length="__PLACEHOLDER__" SASFieldName="DOMAIN"><Description><TranslatedText>Domain Abbreviation</TranslatedText></Description><def:Origin Type="__PLACEHOLDER__" Source="__PLACEHOLDER__" /></ItemDef><ItemDef OID="IT.SU.USUBJID" Name="USUBJID" DataType="text" Length="__PLACEHOLDER__" SASFieldName="USUBJID"><Description><TranslatedText>Unique Subject Identifier</TranslatedText></Description><def:Origin Type="__PLACEHOLDER__" Source="__PLACEHOLDER__" /></ItemDef><ItemDef OID="IT.SU.SUSEQ" Name="SUSEQ" DataType="integer" Length="__PLACEHOLDER__" SASFieldName="SUSEQ"><Description><TranslatedText>Sequence Number</TranslatedText></Description><def:Origin Type="__PLACEHOLDER__" Source="__PLACEHOLDER__" /></ItemDef><ItemDef OID="IT.SU.SUTRT" Name="SUTRT" DataType="text" Length="200" SASFieldName="SUTRT"><Description><TranslatedText>Reported Name of Substance</TranslatedText></Description><def:Origin Type="Collected" Source="Investigator"><def:DocumentRef leafID="LF.acrf" /></def:Origin></ItemDef><ItemDef OID="IT.SU.SUCAT" Name="SUCAT" DataType="text" Length="200" SASFieldName="SUCAT"><Description><TranslatedText>Category for Substance Use</TranslatedText></Description><def:Origin Type="Assigned" Source="Sponsor" /></ItemDef><ItemDef OID="IT.SU.SUSCAT" Name="SUSCAT" DataType="text" Length="200" SASFieldName="SUSCAT"><Description><TranslatedText>Subcategory for Substance Use</TranslatedText></Description><def:Origin Type="Assigned" Source="Sponsor" /></ItemDef><ItemDef OID="IT.SU.SUPRESP" Name="SUPRESP" DataType="text" Length="1" SASFieldName="SUPRESP"><Description><TranslatedText>SU Pre-Specified</TranslatedText></Description><CodeListRef CodeListOID="CL.NY" /><def:Origin Type="Assigned" Source="Sponsor" /></ItemDef><ItemDef OID="IT.SU.SUOCCUR" Name="SUOCCUR" DataType="text" Length="1" SASFieldName="SUOCCUR"><Description><TranslatedText>SU Occurrence</TranslatedText></Description><CodeListRef CodeListOID="CL.NY" /><def:Origin Type="Collected" Source="Investigator"><def:DocumentRef leafID="LF.acrf" /></def:Origin></ItemDef><ItemDef OID="IT.SU.SUDOSE" Name="SUDOSE" DataType="float" Length="12" SignificantDigits="4" SASFieldName="SUDOSE" def:DisplayFormat="12.4"><Description><TranslatedText>Substance Use Consumption</TranslatedText></Description><def:Origin Type="Collected" Source="Investigator"><def:DocumentRef leafID="LF.acrf" /></def:Origin></ItemDef><ItemDef OID="IT.SU.SUDOSTXT" Name="SUDOSTXT" DataType="text" Length="40" SASFieldName="SUDOSTXT"><Description><TranslatedText>Substance Use Consumption Text</TranslatedText></Description><def:Origin Type="Collected" Source="Investigator"><def:DocumentRef leafID="LF.acrf" /></def:Origin></ItemDef><ItemDef OID="IT.SU.SUDOSU" Name="SUDOSU" DataType="text" Length="40" SASFieldName="SUDOSU"><Description><TranslatedText>Consumption Units</TranslatedText></Description><CodeListRef CodeListOID="CL.UNIT" /><def:Origin Type="Collected" Source="Investigator"><def:DocumentRef leafID="LF.acrf" /></def:Origin></ItemDef><ItemDef OID="IT.SU.SUDOSFRQ" Name="SUDOSFRQ" DataType="text" Length="40" SASFieldName="SUDOSFRQ"><Description><TranslatedText>Use Frequency Per Interval</TranslatedText></Description><CodeListRef CodeListOID="CL.FREQ" /><def:Origin Type="Collected" Source="Investigator"><def:DocumentRef leafID="LF.acrf" /></def:Origin></ItemDef><ItemDef OID="IT.SU.SUSTDTC" Name="SUSTDTC" DataType="datetime" SASFieldName="SUSTDTC"><Description><TranslatedText>Start Date/Time of Substance Use</TranslatedText></Description><def:Origin Type="Collected" Source="Investigator"><def:DocumentRef leafID="LF.acrf" /></def:Origin></ItemDef><ItemDef OID="IT.SU.SUENDTC" Name="SUENDTC" DataType="datetime" SASFieldName="SUENDTC"><Description><TranslatedText>End Date/Time of Substance Use</TranslatedText></Description><def:Origin Type="Collected" Source="Investigator"><def:DocumentRef leafID="LF.acrf" /></def:Origin></ItemDef><ItemDef OID="IT.SU.SUDUR" Name="SUDUR" DataType="durationDatetime" SASFieldName="SUDUR"><Description><TranslatedText>Duration of Substance Use</TranslatedText></Description><def:Origin Type="Collected" Source="Investigator"><def:DocumentRef leafID="LF.acrf" /></def:Origin></ItemDef><ItemDef OID="IT.SU.SUSTRF" Name="SUSTRF" DataType="text" Length="20" SASFieldName="SUSTRF"><Description><TranslatedText>Start Relative to Reference Period</TranslatedText></Description><CodeListRef CodeListOID="CL.STENRF" /><def:Origin Type="Assigned" Source="Sponsor" /></ItemDef><ItemDef OID="IT.SU.SUENRF" Name="SUENRF" DataType="text" Length="20" SASFieldName="SUENRF"><Description><TranslatedText>End Relative to Reference Period</TranslatedText></Description><CodeListRef CodeListOID="CL.STENRF" /><def:Origin Type="Assigned" Source="Sponsor" /></ItemDef><ItemDef OID="IT.SU.SUSTRTPT" Name="SUSTRTPT" DataType="text" Length="20" SASFieldName="SUSTRTPT"><Description><TranslatedText>Start Relative to Reference Time Point</TranslatedText></Description><CodeListRef CodeListOID="CL.STENRF" /><def:Origin Type="Assigned" Source="Sponsor" /></ItemDef><ItemDef OID="IT.SU.SUSTTPT" Name="SUSTTPT" DataType="text" Length="20" SASFieldName="SUSTTPT"><Description><TranslatedText>Start Reference Time Point</TranslatedText></Description><def:Origin Type="Assigned" Source="Sponsor" /></ItemDef><ItemDef OID="IT.SU.SUENRTPT" Name="SUENRTPT" DataType="text" Length="20" SASFieldName="SUENRTPT"><Description><TranslatedText>End Relative to Reference Time Point</TranslatedText></Description><CodeListRef CodeListOID="CL.STENRF" /><def:Origin Type="Assigned" Source="Sponsor" /></ItemDef><ItemDef OID="IT.SU.SUENTPT" Name="SUENTPT" DataType="text" Length="20" SASFieldName="SUENTPT"><Description><TranslatedText>End Reference Time Point</TranslatedText></Description><def:Origin Type="Assigned" Source="Sponsor" /></ItemDef><ItemDef OID="IT.PR.STUDYID" Name="STUDYID" DataType="text" Length="__PLACEHOLDER__" SASFieldName="STUDYID"><Description><TranslatedText>Study Identifier</TranslatedText></Description><def:Origin Type="__PLACEHOLDER__" Source="__PLACEHOLDER__" /></ItemDef><ItemDef OID="IT.PR.DOMAIN" Name="DOMAIN" DataType="text" Length="__PLACEHOLDER__" SASFieldName="DOMAIN"><Description><TranslatedText>Domain Abbreviation</TranslatedText></Description><def:Origin Type="__PLACEHOLDER__" Source="__PLACEHOLDER__" /></ItemDef><ItemDef OID="IT.PR.USUBJID" Name="USUBJID" DataType="text" Length="__PLACEHOLDER__" SASFieldName="USUBJID"><Description><TranslatedText>Unique Subject Identifier</TranslatedText></Description><def:Origin Type="__PLACEHOLDER__" Source="__PLACEHOLDER__" /></ItemDef><ItemDef OID="IT.PR.PRSEQ" Name="PRSEQ" DataType="integer" Length="__PLACEHOLDER__" SASFieldName="PRSEQ"><Description><TranslatedText>Sequence Number</TranslatedText></Description><def:Origin Type="__PLACEHOLDER__" Source="__PLACEHOLDER__" /></ItemDef><ItemDef OID="IT.PR.PRTRT" Name="PRTRT" DataType="text" Length="200" SASFieldName="PRTRT"><Description><TranslatedText>Reported Name of Procedure</TranslatedText></Description><def:Origin Type="Collected" Source="Investigator"><def:DocumentRef leafID="LF.acrf" /></def:Origin></ItemDef><ItemDef OID="IT.PR.PRDECOD" Name="PRDECOD" DataType="text" Length="200" SASFieldName="PRDECOD"><Description><TranslatedText>Standardized Procedure Name</TranslatedText></Description><CodeListRef CodeListOID="CL.PROCEDUR" /><def:Origin Type="Assigned" Source="Sponsor" /></ItemDef><ItemDef OID="IT.PR.PRCAT" Name="PRCAT" DataType="text" Length="200" SASFieldName="PRCAT"><Description><TranslatedText>Category</TranslatedText></Description><def:Origin Type="Assigned" Source="Sponsor" /></ItemDef><ItemDef OID="IT.PR.PRSCAT" Name="PRSCAT" DataType="text" Length="200" SASFieldName="PRSCAT"><Description><TranslatedText>Subcategory</TranslatedText></Description><def:Origin Type="Assigned" Source="Sponsor" /></ItemDef><ItemDef OID="IT.PR.PRPRESP" Name="PRPRESP" DataType="text" Length="1" SASFieldName="PRPRESP"><Description><TranslatedText>Pre-specified</TranslatedText></Description><CodeListRef CodeListOID="CL.NY" /><def:Origin Type="Assigned" Source="Sponsor" /></ItemDef><ItemDef OID="IT.PR.PROCCUR" Name="PROCCUR" DataType="text" Length="1" SASFieldName="PROCCUR"><Description><TranslatedText>Occurrence</TranslatedText></Description><CodeListRef CodeListOID="CL.NY" /><def:Origin Type="Collected" Source="Investigator"><def:DocumentRef leafID="LF.acrf" /></def:Origin></ItemDef><ItemDef OID="IT.PR.PRLOC" Name="PRLOC" DataType="text" Length="200" SASFieldName="PRLOC"><Description><TranslatedText>Location of Procedure</TranslatedText></Description><CodeListRef CodeListOID="CL.LOC" /><def:Origin Type="Collected" Source="Investigator"><def:DocumentRef leafID="LF.acrf" /></def:Origin></ItemDef><ItemDef OID="IT.PR.PRSTDTC" Name="PRSTDTC" DataType="datetime" SASFieldName="PRSTDTC"><Description><TranslatedText>Start Date/Time of Procedure</TranslatedText></Description><def:Origin Type="Collected" Source="Investigator"><def:DocumentRef leafID="LF.acrf" /></def:Origin></ItemDef><ItemDef OID="IT.PR.PRENDTC" Name="PRENDTC" DataType="datetime" SASFieldName="PRENDTC"><Description><TranslatedText>End Date/Time of Procedure</TranslatedText></Description><def:Origin Type="Collected" Source="Investigator"><def:DocumentRef leafID="LF.acrf" /></def:Origin></ItemDef><ItemDef OID="IT.VS.STUDYID" Name="STUDYID" DataType="text" Length="__PLACEHOLDER__" SASFieldName="STUDYID"><Description><TranslatedText>Study Identifier</TranslatedText></Description><def:Origin Type="__PLACEHOLDER__" Source="__PLACEHOLDER__" /></ItemDef><ItemDef OID="IT.VS.DOMAIN" Name="DOMAIN" DataType="text" Length="__PLACEHOLDER__" SASFieldName="DOMAIN"><Description><TranslatedText>Domain Abbreviation</TranslatedText></Description><def:Origin Type="__PLACEHOLDER__" Source="__PLACEHOLDER__" /></ItemDef><ItemDef OID="IT.VS.USUBJID" Name="USUBJID" DataType="text" Length="__PLACEHOLDER__" SASFieldName="USUBJID"><Description><TranslatedText>Unique Subject Identifier</TranslatedText></Description><def:Origin Type="__PLACEHOLDER__" Source="__PLACEHOLDER__" /></ItemDef><ItemDef OID="IT.VS.VSSEQ" Name="VSSEQ" DataType="integer" Length="__PLACEHOLDER__" SASFieldName="VSSEQ"><Description><TranslatedText>Sequence Number</TranslatedText></Description><def:Origin Type="__PLACEHOLDER__" Source="__PLACEHOLDER__" /></ItemDef><ItemDef OID="IT.VS.VSTESTCD" Name="VSTESTCD" DataType="text" Length="__PLACEHOLDER__" SASFieldName="VSTESTCD"><Description><TranslatedText>Vital Signs Test Short Name</TranslatedText></Description><CodeListRef CodeListOID="CL.VSTESTCD" /><def:Origin Type="__PLACEHOLDER__" Source="__PLACEHOLDER__" /></ItemDef><ItemDef OID="IT.VS.VSTEST" Name="VSTEST" DataType="text" Length="__PLACEHOLDER__" SASFieldName="VSTEST"><Description><TranslatedText>Vital Signs Test Name</TranslatedText></Description><CodeListRef CodeListOID="CL.VSTEST" /><def:Origin Type="__PLACEHOLDER__" Source="__PLACEHOLDER__" /></ItemDef><ItemDef OID="IT.VS.VSPOS" Name="VSPOS" DataType="text" Length="__PLACEHOLDER__" SASFieldName="VSPOS"><Description><TranslatedText>Vital Signs Position of Subject</TranslatedText></Description><CodeListRef CodeListOID="CL.POSITION" /><def:Origin Type="__PLACEHOLDER__" Source="__PLACEHOLDER__" /></ItemDef><ItemDef OID="IT.VS.VSORRES" Name="VSORRES" DataType="float" Length="8" SignificantDigits="3" SASFieldName="VSORRES" def:DisplayFormat="8.3"><Description><TranslatedText>Result or Finding in Original Units</TranslatedText></Description><def:Origin Type="Collected" Source="Investigator"><def:DocumentRef leafID="LF.acrf" /></def:Origin><def:ValueListRef ValueListOID="VL.VS.VSORRES" /></ItemDef><ItemDef OID="IT.VS.VSORRESU" Name="VSORRESU" DataType="text" Length="__PLACEHOLDER__" SASFieldName="VSORRESU"><Description><TranslatedText>Original Units</TranslatedText></Description><CodeListRef CodeListOID="CL.VSRESU" /><def:Origin Type="__PLACEHOLDER__" Source="__PLACEHOLDER__" /><def:ValueListRef ValueListOID="VL.VS.VSORRESU" /></ItemDef><ItemDef OID="IT.VS.VSSTRESC" Name="VSSTRESC" DataType="float" Length="8" SignificantDigits="3" SASFieldName="VSSTRESC" def:DisplayFormat="8.3"><Description><TranslatedText>Character Result/Finding in Std Format</TranslatedText></Description><def:Origin Type="__PLACEHOLDER__" Source="__PLACEHOLDER__" /></ItemDef><ItemDef OID="IT.VS.VSSTRESN" Name="VSSTRESN" DataType="float" Length="8" SignificantDigits="3" SASFieldName="VSSTRESN" def:DisplayFormat="8.3"><Description><TranslatedText>Numeric Result/Finding in Standard Units</TranslatedText></Description><def:Origin Type="__PLACEHOLDER__" Source="__PLACEHOLDER__" /></ItemDef><ItemDef OID="IT.VS.VSSTRESU" Name="VSSTRESU" DataType="text" Length="__PLACEHOLDER__" SASFieldName="VSSTRESU"><Description><TranslatedText>Standard Units</TranslatedText></Description><CodeListRef CodeListOID="CL.VSRESU" /><def:Origin Type="__PLACEHOLDER__" Source="__PLACEHOLDER__" /></ItemDef><ItemDef OID="IT.VS.VSLOC" Name="VSLOC" DataType="text" Length="__PLACEHOLDER__" SASFieldName="VSLOC"><Description><TranslatedText>Location of Vital Signs Measurement</TranslatedText></Description><CodeListRef CodeListOID="CL.LOC" /><def:Origin Type="__PLACEHOLDER__" Source="__PLACEHOLDER__" /></ItemDef><ItemDef OID="IT.VS.VSLAT" Name="VSLAT" DataType="text" Length="__PLACEHOLDER__" SASFieldName="VSLAT"><Description><TranslatedText>Laterality</TranslatedText></Description><CodeListRef CodeListOID="CL.LAT" /><def:Origin Type="__PLACEHOLDER__" Source="__PLACEHOLDER__" /></ItemDef><ItemDef OID="IT.VS.VSLOBXFL" Name="VSLOBXFL" DataType="text" Length="__PLACEHOLDER__" SASFieldName="VSLOBXFL"><Description><TranslatedText>Last Observation Before Exposure Flag</TranslatedText></Description><CodeListRef CodeListOID="CL.NY" /><def:Origin Type="__PLACEHOLDER__" Source="__PLACEHOLDER__" /></ItemDef><ItemDef OID="IT.VS.VISITNUM" Name="VISITNUM" DataType="integer" Length="__PLACEHOLDER__" SASFieldName="VISITNUM"><Description><TranslatedText>Visit Number</TranslatedText></Description><def:Origin Type="__PLACEHOLDER__" Source="__PLACEHOLDER__" /></ItemDef><ItemDef OID="IT.VS.VSDTC" Name="VSDTC" DataType="datetime" SASFieldName="VSDTC"><Description><TranslatedText>Date/Time of Measurements</TranslatedText></Description><def:Origin Type="__PLACEHOLDER__" Source="__PLACEHOLDER__" /></ItemDef><ItemDef OID="IT.EG.STUDYID" Name="STUDYID" DataType="text" Length="__PLACEHOLDER__" SASFieldName="STUDYID"><Description><TranslatedText>Study Identifier</TranslatedText></Description><def:Origin Type="__PLACEHOLDER__" Source="__PLACEHOLDER__" /></ItemDef><ItemDef OID="IT.EG.DOMAIN" Name="DOMAIN" DataType="text" Length="__PLACEHOLDER__" SASFieldName="DOMAIN"><Description><TranslatedText>Domain Abbreviation</TranslatedText></Description><def:Origin Type="__PLACEHOLDER__" Source="__PLACEHOLDER__" /></ItemDef><ItemDef OID="IT.EG.USUBJID" Name="USUBJID" DataType="text" Length="__PLACEHOLDER__" SASFieldName="USUBJID"><Description><TranslatedText>Unique Subject Identifier</TranslatedText></Description><def:Origin Type="__PLACEHOLDER__" Source="__PLACEHOLDER__" /></ItemDef><ItemDef OID="IT.EG.EGSEQ" Name="EGSEQ" DataType="integer" Length="__PLACEHOLDER__" SASFieldName="EGSEQ"><Description><TranslatedText>Sequence Number</TranslatedText></Description><def:Origin Type="__PLACEHOLDER__" Source="__PLACEHOLDER__" /></ItemDef><ItemDef OID="IT.EG.EGTESTCD" Name="EGTESTCD" DataType="text" Length="__PLACEHOLDER__" SASFieldName="EGTESTCD"><Description><TranslatedText>ECG Test or Examination Short Name</TranslatedText></Description><CodeListRef CodeListOID="CL.EGTESTCD" /><def:Origin Type="__PLACEHOLDER__" Source="__PLACEHOLDER__" /></ItemDef><ItemDef OID="IT.EG.EGTEST" Name="EGTEST" DataType="text" Length="__PLACEHOLDER__" SASFieldName="EGTEST"><Description><TranslatedText>ECG Test or Examination Name</TranslatedText></Description><CodeListRef CodeListOID="CL.EGTEST" /><def:Origin Type="__PLACEHOLDER__" Source="__PLACEHOLDER__" /></ItemDef><ItemDef OID="IT.EG.EGCAT" Name="EGCAT" DataType="text" Length="__PLACEHOLDER__" SASFieldName="EGCAT"><Description><TranslatedText>Category for ECG</TranslatedText></Description><def:Origin Type="__PLACEHOLDER__" Source="__PLACEHOLDER__" /></ItemDef><ItemDef OID="IT.EG.EGPOS" Name="EGPOS" DataType="text" Length="__PLACEHOLDER__" SASFieldName="EGPOS"><Description><TranslatedText>ECG Position of Subject</TranslatedText></Description><CodeListRef CodeListOID="CL.POSITION" /><def:Origin Type="__PLACEHOLDER__" Source="__PLACEHOLDER__" /></ItemDef><ItemDef OID="IT.EG.EGORRES" Name="EGORRES" DataType="text" Length="20" SASFieldName="EGORRES"><Description><TranslatedText>Result or Finding in Original Units</TranslatedText></Description><def:Origin Type="__PLACEHOLDER__" Source="__PLACEHOLDER__" /><def:ValueListRef ValueListOID="VL.EG.EGORRES" /></ItemDef><ItemDef OID="IT.EG.EGORRESU" Name="EGORRESU" DataType="text" Length="__PLACEHOLDER__" SASFieldName="EGORRESU"><Description><TranslatedText>Original Units</TranslatedText></Description><CodeListRef CodeListOID="CL.UNIT" /><def:Origin Type="__PLACEHOLDER__" Source="__PLACEHOLDER__" /><def:ValueListRef ValueListOID="VL.EG.EGORRESU" /></ItemDef><ItemDef OID="IT.EG.EGSTRESC" Name="EGSTRESC" DataType="text" Length="20" SASFieldName="EGSTRESC"><Description><TranslatedText>Character Result/Finding in Std Format</TranslatedText></Description><CodeListRef CodeListOID="CL.EGSTRESC" /><def:Origin Type="__PLACEHOLDER__" Source="__PLACEHOLDER__" /></ItemDef><ItemDef OID="IT.EG.EGSTRESN" Name="EGSTRESN" DataType="float" Length="8" SignificantDigits="3" SASFieldName="EGSTRESN" def:DisplayFormat="8.3"><Description><TranslatedText>Numeric Result/Finding in Standard Units</TranslatedText></Description><def:Origin Type="__PLACEHOLDER__" Source="__PLACEHOLDER__" /></ItemDef><ItemDef OID="IT.EG.EGSTRESU" Name="EGSTRESU" DataType="text" Length="__PLACEHOLDER__" SASFieldName="EGSTRESU"><Description><TranslatedText>Standard Units</TranslatedText></Description><CodeListRef CodeListOID="CL.UNIT" /><def:Origin Type="__PLACEHOLDER__" Source="__PLACEHOLDER__" /></ItemDef><ItemDef OID="IT.EG.EGMETHOD" Name="EGMETHOD" DataType="text" Length="__PLACEHOLDER__" SASFieldName="EGMETHOD"><Description><TranslatedText>Method of Test or Examination</TranslatedText></Description><CodeListRef CodeListOID="CL.EGMETHOD" /><def:Origin Type="__PLACEHOLDER__" Source="__PLACEHOLDER__" /></ItemDef><ItemDef OID="IT.EG.EGLOBXFL" Name="EGLOBXFL" DataType="text" Length="__PLACEHOLDER__" SASFieldName="EGLOBXFL"><Description><TranslatedText>Last Observation Before Exposure Flag</TranslatedText></Description><CodeListRef CodeListOID="CL.NY" /><def:Origin Type="__PLACEHOLDER__" Source="__PLACEHOLDER__" /></ItemDef><ItemDef OID="IT.EG.EGEVAL" Name="EGEVAL" DataType="text" Length="__PLACEHOLDER__" SASFieldName="EGEVAL"><Description><TranslatedText>Evaluator</TranslatedText></Description><CodeListRef CodeListOID="CL.EVAL" /><def:Origin Type="__PLACEHOLDER__" Source="__PLACEHOLDER__" /></ItemDef><ItemDef OID="IT.EG.EGCLSIG" Name="EGCLSIG" DataType="text" Length="__PLACEHOLDER__" SASFieldName="EGCLSIG"><Description><TranslatedText>Clinically Significant, Collected</TranslatedText></Description><CodeListRef CodeListOID="CL.NY" /><def:Origin Type="__PLACEHOLDER__" Source="__PLACEHOLDER__" /></ItemDef><ItemDef OID="IT.EG.VISITNUM" Name="VISITNUM" DataType="integer" Length="__PLACEHOLDER__" SASFieldName="VISITNUM"><Description><TranslatedText>Visit Number</TranslatedText></Description><def:Origin Type="__PLACEHOLDER__" Source="__PLACEHOLDER__" /></ItemDef><ItemDef OID="IT.EG.EGDTC" Name="EGDTC" DataType="datetime" SASFieldName="EGDTC"><Description><TranslatedText>Date/Time of ECG</TranslatedText></Description><def:Origin Type="__PLACEHOLDER__" Source="__PLACEHOLDER__" /></ItemDef><ItemDef OID="IT.CM.STUDYID" Name="STUDYID" DataType="text" Length="__PLACEHOLDER__" SASFieldName="STUDYID"><Description><TranslatedText>Study Identifier</TranslatedText></Description><def:Origin Type="__PLACEHOLDER__" Source="__PLACEHOLDER__" /></ItemDef><ItemDef OID="IT.CM.DOMAIN" Name="DOMAIN" DataType="text" Length="__PLACEHOLDER__" SASFieldName="DOMAIN"><Description><TranslatedText>Domain Abbreviation</TranslatedText></Description><def:Origin Type="__PLACEHOLDER__" Source="__PLACEHOLDER__" /></ItemDef><ItemDef OID="IT.CM.USUBJID" Name="USUBJID" DataType="text" Length="__PLACEHOLDER__" SASFieldName="USUBJID"><Description><TranslatedText>Unique Subject Identifier</TranslatedText></Description><def:Origin Type="__PLACEHOLDER__" Source="__PLACEHOLDER__" /></ItemDef><ItemDef OID="IT.CM.CMSEQ" Name="CMSEQ" DataType="integer" Length="__PLACEHOLDER__" SASFieldName="CMSEQ"><Description><TranslatedText>Sequence Number</TranslatedText></Description><def:Origin Type="__PLACEHOLDER__" Source="__PLACEHOLDER__" /></ItemDef><ItemDef OID="IT.CM.CMTRT" Name="CMTRT" DataType="text" Length="200" SASFieldName="CMTRT"><Description><TranslatedText>Reported Name of Drug, Med, or Therapy</TranslatedText></Description><def:Origin Type="Collected" Source="Investigator"><def:DocumentRef leafID="LF.acrf" /></def:Origin></ItemDef><ItemDef OID="IT.CM.CMDECOD" Name="CMDECOD" DataType="text" Length="200" SASFieldName="CMDECOD"><Description><TranslatedText>Standardized Medication Name</TranslatedText></Description><def:Origin Type="Assigned" Source="Sponsor" /></ItemDef><ItemDef OID="IT.CM.CMCAT" Name="CMCAT" DataType="text" Length="200" SASFieldName="CMCAT"><Description><TranslatedText>Category for Medication</TranslatedText></Description><def:Origin Type="Assigned" Source="Sponsor" /></ItemDef><ItemDef OID="IT.CM.CMSCAT" Name="CMSCAT" DataType="text" Length="200" SASFieldName="CMSCAT"><Description><TranslatedText>Subcategory for Medication</TranslatedText></Description><def:Origin Type="Assigned" Source="Sponsor" /></ItemDef><ItemDef OID="IT.CM.CMPRESP" Name="CMPRESP" DataType="text" Length="1" SASFieldName="CMPRESP"><Description><TranslatedText>CM Pre-specified</TranslatedText></Description><CodeListRef CodeListOID="CL.NY" /><def:Origin Type="Assigned" Source="Sponsor" /></ItemDef><ItemDef OID="IT.CM.CMOCCUR" Name="CMOCCUR" DataType="text" Length="1" SASFieldName="CMOCCUR"><Description><TranslatedText>CM Occurrence</TranslatedText></Description><CodeListRef CodeListOID="CL.NY" /><def:Origin Type="Collected" Source="Investigator"><def:DocumentRef leafID="LF.acrf" /></def:Origin></ItemDef><ItemDef OID="IT.CM.CMINDC" Name="CMINDC" DataType="text" Length="200" SASFieldName="CMINDC"><Description><TranslatedText>Indication</TranslatedText></Description><def:Origin Type="Collected" Source="Investigator"><def:DocumentRef leafID="LF.acrf" /></def:Origin></ItemDef><ItemDef OID="IT.CM.CMDOSE" Name="CMDOSE" DataType="text" Length="40" SASFieldName="CMDOSE"><Description><TranslatedText>Dose per Administration</TranslatedText></Description><def:Origin Type="Collected" Source="Investigator"><def:DocumentRef leafID="LF.acrf" /></def:Origin></ItemDef><ItemDef OID="IT.CM.CMDOSU" Name="CMDOSU" DataType="text" Length="40" SASFieldName="CMDOSU"><Description><TranslatedText>Dose Units</TranslatedText></Description><CodeListRef CodeListOID="CL.UNIT" /><def:Origin Type="Collected" Source="Investigator"><def:DocumentRef leafID="LF.acrf" /></def:Origin></ItemDef><ItemDef OID="IT.CM.CMDOSFRM" Name="CMDOSFRM" DataType="text" Length="40" SASFieldName="CMDOSFRM"><Description><TranslatedText>Dose Form</TranslatedText></Description><CodeListRef CodeListOID="CL.FRM" /><def:Origin Type="Collected" Source="Investigator"><def:DocumentRef leafID="LF.acrf" /></def:Origin></ItemDef><ItemDef OID="IT.CM.CMROUTE" Name="CMROUTE" DataType="text" Length="200" SASFieldName="CMROUTE"><Description><TranslatedText>Route of Administration</TranslatedText></Description><CodeListRef CodeListOID="CL.ROUTE" /><def:Origin Type="Collected" Source="Investigator"><def:DocumentRef leafID="LF.acrf" /></def:Origin></ItemDef><ItemDef OID="IT.CM.CMSTDTC" Name="CMSTDTC" DataType="datetime" SASFieldName="CMSTDTC"><Description><TranslatedText>Start Date/Time of Medication</TranslatedText></Description><def:Origin Type="Collected" Source="Investigator"><def:DocumentRef leafID="LF.acrf" /></def:Origin></ItemDef><ItemDef OID="IT.CM.CMENDTC" Name="CMENDTC" DataType="datetime" SASFieldName="CMENDTC"><Description><TranslatedText>End Date/Time of Medication</TranslatedText></Description><def:Origin Type="Collected" Source="Investigator"><def:DocumentRef leafID="LF.acrf" /></def:Origin></ItemDef><ItemDef OID="IT.LB.STUDYID" Name="STUDYID" DataType="text" Length="__PLACEHOLDER__" SASFieldName="STUDYID"><Description><TranslatedText>Study Identifier</TranslatedText></Description><def:Origin Type="__PLACEHOLDER__" Source="__PLACEHOLDER__" /></ItemDef><ItemDef OID="IT.LB.DOMAIN" Name="DOMAIN" DataType="text" Length="__PLACEHOLDER__" SASFieldName="DOMAIN"><Description><TranslatedText>Domain Abbreviation</TranslatedText></Description><def:Origin Type="__PLACEHOLDER__" Source="__PLACEHOLDER__" /></ItemDef><ItemDef OID="IT.LB.USUBJID" Name="USUBJID" DataType="text" Length="__PLACEHOLDER__" SASFieldName="USUBJID"><Description><TranslatedText>Unique Subject Identifier</TranslatedText></Description><def:Origin Type="__PLACEHOLDER__" Source="__PLACEHOLDER__" /></ItemDef><ItemDef OID="IT.LB.LBSEQ" Name="LBSEQ" DataType="integer" Length="__PLACEHOLDER__" SASFieldName="LBSEQ"><Description><TranslatedText>Sequence Number</TranslatedText></Description><def:Origin Type="__PLACEHOLDER__" Source="__PLACEHOLDER__" /></ItemDef><ItemDef OID="IT.LB.LBTESTCD" Name="LBTESTCD" DataType="text" Length="__PLACEHOLDER__" SASFieldName="LBTESTCD"><Description><TranslatedText>Lab Test or Examination Short Name</TranslatedText></Description><CodeListRef CodeListOID="CL.LBTESTCD" /><def:Origin Type="__PLACEHOLDER__" Source="__PLACEHOLDER__" /></ItemDef><ItemDef OID="IT.LB.LBTEST" Name="LBTEST" DataType="text" Length="__PLACEHOLDER__" SASFieldName="LBTEST"><Description><TranslatedText>Lab Test or Examination Name</TranslatedText></Description><CodeListRef CodeListOID="CL.LBTEST" /><def:Origin Type="__PLACEHOLDER__" Source="__PLACEHOLDER__" /></ItemDef><ItemDef OID="IT.LB.LBCAT" Name="LBCAT" DataType="text" Length="__PLACEHOLDER__" SASFieldName="LBCAT"><Description><TranslatedText>Category for Lab Test</TranslatedText></Description><def:Origin Type="__PLACEHOLDER__" Source="__PLACEHOLDER__" /></ItemDef><ItemDef OID="IT.LB.LBORRES" Name="LBORRES" DataType="float" Length="12" SignificantDigits="4" SASFieldName="LBORRES" def:DisplayFormat="12.4"><Description><TranslatedText>Result or Finding in Original Units</TranslatedText></Description><def:Origin Type="Collected" Source="Vendor" /><def:ValueListRef ValueListOID="VL.LB.LBORRES" /></ItemDef><ItemDef OID="IT.LB.LBORRESU" Name="LBORRESU" DataType="text" Length="__PLACEHOLDER__" SASFieldName="LBORRESU"><Description><TranslatedText>Original Units</TranslatedText></Description><CodeListRef CodeListOID="CL.UNIT" /><def:Origin Type="__PLACEHOLDER__" Source="__PLACEHOLDER__" /><def:ValueListRef ValueListOID="VL.LB.LBORRESU" /></ItemDef><ItemDef OID="IT.LB.LBORNRLO" Name="LBORNRLO" DataType="text" Length="__PLACEHOLDER__" SASFieldName="LBORNRLO"><Description><TranslatedText>Reference Range Lower Limit in Orig Unit</TranslatedText></Description><def:Origin Type="__PLACEHOLDER__" Source="__PLACEHOLDER__" /></ItemDef><ItemDef OID="IT.LB.LBORNRHI" Name="LBORNRHI" DataType="text" Length="__PLACEHOLDER__" SASFieldName="LBORNRHI"><Description><TranslatedText>Reference Range Upper Limit in Orig Unit</TranslatedText></Description><def:Origin Type="__PLACEHOLDER__" Source="__PLACEHOLDER__" /></ItemDef><ItemDef OID="IT.LB.LBSTRESC" Name="LBSTRESC" DataType="float" Length="12" SignificantDigits="4" SASFieldName="LBSTRESC" def:DisplayFormat="12.4"><Description><TranslatedText>Character Result/Finding in Std Format</TranslatedText></Description><CodeListRef CodeListOID="CL.LBSTRESC" /><def:Origin Type="Collected" Source="Vendor" /></ItemDef><ItemDef OID="IT.LB.LBSTRESN" Name="LBSTRESN" DataType="float" Length="12" SignificantDigits="4" SASFieldName="LBSTRESN" def:DisplayFormat="12.4"><Description><TranslatedText>Numeric Result/Finding in Standard Units</TranslatedText></Description><def:Origin Type="Collected" Source="Vendor" /></ItemDef><ItemDef OID="IT.LB.LBSTRESU" Name="LBSTRESU" DataType="text" Length="__PLACEHOLDER__" SASFieldName="LBSTRESU"><Description><TranslatedText>Standard Units</TranslatedText></Description><CodeListRef CodeListOID="CL.UNIT" /><def:Origin Type="__PLACEHOLDER__" Source="__PLACEHOLDER__" /></ItemDef><ItemDef OID="IT.LB.LBSTNRLO" Name="LBSTNRLO" DataType="integer" Length="__PLACEHOLDER__" SASFieldName="LBSTNRLO"><Description><TranslatedText>Reference Range Lower Limit-Std Units</TranslatedText></Description><def:Origin Type="__PLACEHOLDER__" Source="__PLACEHOLDER__" /></ItemDef><ItemDef OID="IT.LB.LBSTNRHI" Name="LBSTNRHI" DataType="integer" Length="__PLACEHOLDER__" SASFieldName="LBSTNRHI"><Description><TranslatedText>Reference Range Upper Limit-Std Units</TranslatedText></Description><def:Origin Type="__PLACEHOLDER__" Source="__PLACEHOLDER__" /></ItemDef><ItemDef OID="IT.LB.LBNRIND" Name="LBNRIND" DataType="text" Length="__PLACEHOLDER__" SASFieldName="LBNRIND"><Description><TranslatedText>Reference Range Indicator</TranslatedText></Description><CodeListRef CodeListOID="CL.NRIND" /><def:Origin Type="__PLACEHOLDER__" Source="__PLACEHOLDER__" /></ItemDef><ItemDef OID="IT.LB.LBSPEC" Name="LBSPEC" DataType="text" Length="__PLACEHOLDER__" SASFieldName="LBSPEC"><Description><TranslatedText>Specimen Type</TranslatedText></Description><CodeListRef CodeListOID="CL.SPECTYPE" /><def:Origin Type="__PLACEHOLDER__" Source="__PLACEHOLDER__" /></ItemDef><ItemDef OID="IT.LB.LBMETHOD" Name="LBMETHOD" DataType="text" Length="__PLACEHOLDER__" SASFieldName="LBMETHOD"><Description><TranslatedText>Method of Test or Examination</TranslatedText></Description><CodeListRef CodeListOID="CL.METHOD" /><def:Origin Type="__PLACEHOLDER__" Source="__PLACEHOLDER__" /></ItemDef><ItemDef OID="IT.LB.LBLOBXFL" Name="LBLOBXFL" DataType="text" Length="__PLACEHOLDER__" SASFieldName="LBLOBXFL"><Description><TranslatedText>Last Observation Before Exposure Flag</TranslatedText></Description><CodeListRef CodeListOID="CL.NY" /><def:Origin Type="__PLACEHOLDER__" Source="__PLACEHOLDER__" /></ItemDef><ItemDef OID="IT.LB.LBFAST" Name="LBFAST" DataType="text" Length="__PLACEHOLDER__" SASFieldName="LBFAST"><Description><TranslatedText>Fasting Status</TranslatedText></Description><CodeListRef CodeListOID="CL.NY" /><def:Origin Type="__PLACEHOLDER__" Source="__PLACEHOLDER__" /></ItemDef><ItemDef OID="IT.LB.VISITNUM" Name="VISITNUM" DataType="integer" Length="__PLACEHOLDER__" SASFieldName="VISITNUM"><Description><TranslatedText>Visit Number</TranslatedText></Description><def:Origin Type="__PLACEHOLDER__" Source="__PLACEHOLDER__" /></ItemDef><ItemDef OID="IT.LB.LBDTC" Name="LBDTC" DataType="datetime" SASFieldName="LBDTC"><Description><TranslatedText>Date/Time of Specimen Collection</TranslatedText></Description><def:Origin Type="__PLACEHOLDER__" Source="__PLACEHOLDER__" /></ItemDef><ItemDef OID="IT.MB.STUDYID" Name="STUDYID" DataType="text" Length="__PLACEHOLDER__" SASFieldName="STUDYID"><Description><TranslatedText>Study Identifier</TranslatedText></Description><def:Origin Type="__PLACEHOLDER__" Source="__PLACEHOLDER__" /></ItemDef><ItemDef OID="IT.MB.DOMAIN" Name="DOMAIN" DataType="text" Length="__PLACEHOLDER__" SASFieldName="DOMAIN"><Description><TranslatedText>Domain Abbreviation</TranslatedText></Description><def:Origin Type="__PLACEHOLDER__" Source="__PLACEHOLDER__" /></ItemDef><ItemDef OID="IT.MB.USUBJID" Name="USUBJID" DataType="text" Length="__PLACEHOLDER__" SASFieldName="USUBJID"><Description><TranslatedText>Unique Subject Identifier</TranslatedText></Description><def:Origin Type="__PLACEHOLDER__" Source="__PLACEHOLDER__" /></ItemDef><ItemDef OID="IT.MB.MBSEQ" Name="MBSEQ" DataType="integer" Length="__PLACEHOLDER__" SASFieldName="MBSEQ"><Description><TranslatedText>Sequence Number</TranslatedText></Description><def:Origin Type="__PLACEHOLDER__" Source="__PLACEHOLDER__" /></ItemDef><ItemDef OID="IT.MB.MBTESTCD" Name="MBTESTCD" DataType="text" Length="__PLACEHOLDER__" SASFieldName="MBTESTCD"><Description><TranslatedText>Microbiology Test or Finding Short Name</TranslatedText></Description><CodeListRef CodeListOID="CL.MBTESTCD" /><def:Origin Type="__PLACEHOLDER__" Source="__PLACEHOLDER__" /></ItemDef><ItemDef OID="IT.MB.MBTEST" Name="MBTEST" DataType="text" Length="__PLACEHOLDER__" SASFieldName="MBTEST"><Description><TranslatedText>Microbiology Test or Finding Name</TranslatedText></Description><CodeListRef CodeListOID="CL.MBTEST" /><def:Origin Type="__PLACEHOLDER__" Source="__PLACEHOLDER__" /></ItemDef><ItemDef OID="IT.MB.MBTSTDTL" Name="MBTSTDTL" DataType="text" Length="__PLACEHOLDER__" SASFieldName="MBTSTDTL"><Description><TranslatedText>Measurement, Test or Examination Detail</TranslatedText></Description><CodeListRef CodeListOID="CL.MBFTSDTL" /><def:Origin Type="__PLACEHOLDER__" Source="__PLACEHOLDER__" /></ItemDef><ItemDef OID="IT.MB.MBORRES" Name="MBORRES" DataType="text" Length="20" SASFieldName="MBORRES"><Description><TranslatedText>Result or Finding in Original Units</TranslatedText></Description><def:Origin Type="__PLACEHOLDER__" Source="__PLACEHOLDER__" /><def:ValueListRef ValueListOID="VL.MB.MBORRES" /></ItemDef><ItemDef OID="IT.MB.MBSTRESC" Name="MBSTRESC" DataType="text" Length="20" SASFieldName="MBSTRESC"><Description><TranslatedText>Result or Finding in Standard Format</TranslatedText></Description><def:Origin Type="__PLACEHOLDER__" Source="__PLACEHOLDER__" /></ItemDef><ItemDef OID="IT.MB.MBSPEC" Name="MBSPEC" DataType="text" Length="__PLACEHOLDER__" SASFieldName="MBSPEC"><Description><TranslatedText>Specimen Material Type</TranslatedText></Description><CodeListRef CodeListOID="CL.SPECTYPE" /><def:Origin Type="__PLACEHOLDER__" Source="__PLACEHOLDER__" /></ItemDef><ItemDef OID="IT.MB.MBMETHOD" Name="MBMETHOD" DataType="text" Length="__PLACEHOLDER__" SASFieldName="MBMETHOD"><Description><TranslatedText>Method of Test or Examination</TranslatedText></Description><CodeListRef CodeListOID="CL.METHOD" /><def:Origin Type="__PLACEHOLDER__" Source="__PLACEHOLDER__" /></ItemDef><ItemDef OID="IT.MB.VISITNUM" Name="VISITNUM" DataType="integer" Length="__PLACEHOLDER__" SASFieldName="VISITNUM"><Description><TranslatedText>Visit Number</TranslatedText></Description><def:Origin Type="__PLACEHOLDER__" Source="__PLACEHOLDER__" /></ItemDef><ItemDef OID="IT.MB.MBDTC" Name="MBDTC" DataType="datetime" SASFieldName="MBDTC"><Description><TranslatedText>Date/Time of Collection</TranslatedText></Description><def:Origin Type="__PLACEHOLDER__" Source="__PLACEHOLDER__" /></ItemDef><ItemDef OID="IT.EC.STUDYID" Name="STUDYID" DataType="text" Length="__PLACEHOLDER__" SASFieldName="STUDYID"><Description><TranslatedText>Study Identifier</TranslatedText></Description><def:Origin Type="__PLACEHOLDER__" Source="__PLACEHOLDER__" /></ItemDef><ItemDef OID="IT.EC.DOMAIN" Name="DOMAIN" DataType="text" Length="__PLACEHOLDER__" SASFieldName="DOMAIN"><Description><TranslatedText>Domain Abbreviation</TranslatedText></Description><def:Origin Type="__PLACEHOLDER__" Source="__PLACEHOLDER__" /></ItemDef><ItemDef OID="IT.EC.USUBJID" Name="USUBJID" DataType="text" Length="__PLACEHOLDER__" SASFieldName="USUBJID"><Description><TranslatedText>Unique Subject Identifier</TranslatedText></Description><def:Origin Type="__PLACEHOLDER__" Source="__PLACEHOLDER__" /></ItemDef><ItemDef OID="IT.EC.ECSEQ" Name="ECSEQ" DataType="integer" Length="__PLACEHOLDER__" SASFieldName="ECSEQ"><Description><TranslatedText>Sequence Number</TranslatedText></Description><def:Origin Type="__PLACEHOLDER__" Source="__PLACEHOLDER__" /></ItemDef><ItemDef OID="IT.EC.ECREFID" Name="ECREFID" DataType="text" Length="__PLACEHOLDER__" SASFieldName="ECREFID"><Description><TranslatedText>Reference ID</TranslatedText></Description><def:Origin Type="Collected" Source="Investigator"><def:DocumentRef leafID="LF.acrf" /></def:Origin></ItemDef><ItemDef OID="IT.EC.ECTRT" Name="ECTRT" DataType="text" Length="200" SASFieldName="ECTRT"><Description><TranslatedText>Name of Treatment</TranslatedText></Description><def:Origin Type="Collected" Source="Investigator"><def:DocumentRef leafID="LF.acrf" /></def:Origin></ItemDef><ItemDef OID="IT.EC.ECDOSE" Name="ECDOSE" DataType="integer" Length="20" SASFieldName="ECDOSE"><Description><TranslatedText>Dose</TranslatedText></Description><def:Origin Type="Collected" Source="Investigator"><def:DocumentRef leafID="LF.acrf" /></def:Origin></ItemDef><ItemDef OID="IT.EC.ECDOSTXT" Name="ECDOSTXT" DataType="text" Length="100" SASFieldName="ECDOSTXT"><Description><TranslatedText>Dose Description</TranslatedText></Description><def:Origin Type="Collected" Source="Investigator"><def:DocumentRef leafID="LF.acrf" /></def:Origin></ItemDef><ItemDef OID="IT.EC.ECDOSU" Name="ECDOSU" DataType="text" Length="200" SASFieldName="ECDOSU"><Description><TranslatedText>Dose Units</TranslatedText></Description><CodeListRef CodeListOID="CL.UNIT" /><def:Origin Type="Collected" Source="Investigator"><def:DocumentRef leafID="LF.acrf" /></def:Origin></ItemDef><ItemDef OID="IT.EC.ECDOSFRM" Name="ECDOSFRM" DataType="text" Length="200" SASFieldName="ECDOSFRM"><Description><TranslatedText>Dose Form</TranslatedText></Description><CodeListRef CodeListOID="CL.FRM" /><def:Origin Type="Collected" Source="Investigator"><def:DocumentRef leafID="LF.acrf" /></def:Origin></ItemDef><ItemDef OID="IT.EC.ECDOSFRQ" Name="ECDOSFRQ" DataType="text" Length="200" SASFieldName="ECDOSFRQ"><Description><TranslatedText>Dosing Frequency per Interval</TranslatedText></Description><CodeListRef CodeListOID="CL.FREQ" /><def:Origin Type="Collected" Source="Investigator"><def:DocumentRef leafID="LF.acrf" /></def:Origin></ItemDef><ItemDef OID="IT.EC.ECDOSRGM" Name="ECDOSRGM" DataType="text" Length="__PLACEHOLDER__" SASFieldName="ECDOSRGM"><Description><TranslatedText>Intended Dose Regimen</TranslatedText></Description><def:Origin Type="Collected" Source="Investigator"><def:DocumentRef leafID="LF.acrf" /></def:Origin></ItemDef><ItemDef OID="IT.EC.ECROUTE" Name="ECROUTE" DataType="text" Length="200" SASFieldName="ECROUTE"><Description><TranslatedText>Route of Administration</TranslatedText></Description><CodeListRef CodeListOID="CL.ROUTE" /><def:Origin Type="Collected" Source="Investigator"><def:DocumentRef leafID="LF.acrf" /></def:Origin></ItemDef><ItemDef OID="IT.EC.ECLOC" Name="ECLOC" DataType="text" Length="200" SASFieldName="ECLOC"><Description><TranslatedText>Location of Dose Administration</TranslatedText></Description><CodeListRef CodeListOID="CL.LOC" /><def:Origin Type="Collected" Source="Investigator"><def:DocumentRef leafID="LF.acrf" /></def:Origin></ItemDef><ItemDef OID="IT.EC.ECLAT" Name="ECLAT" DataType="text" Length="200" SASFieldName="ECLAT"><Description><TranslatedText>Laterality</TranslatedText></Description><CodeListRef CodeListOID="CL.LAT" /><def:Origin Type="Collected" Source="Investigator"><def:DocumentRef leafID="LF.acrf" /></def:Origin></ItemDef><ItemDef OID="IT.EC.ECDIR" Name="ECDIR" DataType="text" Length="__PLACEHOLDER__" SASFieldName="ECDIR"><Description><TranslatedText>Directionality</TranslatedText></Description><CodeListRef CodeListOID="CL.DIR" /><def:Origin Type="Collected" Source="Investigator"><def:DocumentRef leafID="LF.acrf" /></def:Origin></ItemDef><ItemDef OID="IT.EC.ECSTDTC" Name="ECSTDTC" DataType="datetime" SASFieldName="ECSTDTC"><Description><TranslatedText>Start Date/Time of Treatment</TranslatedText></Description><def:Origin Type="__PLACEHOLDER__" Source="__PLACEHOLDER__" /></ItemDef><ItemDef OID="IT.EC.ECENDTC" Name="ECENDTC" DataType="datetime" SASFieldName="ECENDTC"><Description><TranslatedText>End Date/Time of Treatment</TranslatedText></Description><def:Origin Type="__PLACEHOLDER__" Source="__PLACEHOLDER__" /></ItemDef><ItemDef OID="IT.AE.STUDYID" Name="STUDYID" DataType="text" Length="__PLACEHOLDER__" SASFieldName="STUDYID"><Description><TranslatedText>Study Identifier</TranslatedText></Description><def:Origin Type="__PLACEHOLDER__" Source="__PLACEHOLDER__" /></ItemDef><ItemDef OID="IT.AE.DOMAIN" Name="DOMAIN" DataType="text" Length="__PLACEHOLDER__" SASFieldName="DOMAIN"><Description><TranslatedText>Domain Abbreviation</TranslatedText></Description><def:Origin Type="__PLACEHOLDER__" Source="__PLACEHOLDER__" /></ItemDef><ItemDef OID="IT.AE.USUBJID" Name="USUBJID" DataType="text" Length="__PLACEHOLDER__" SASFieldName="USUBJID"><Description><TranslatedText>Unique Subject Identifier</TranslatedText></Description><def:Origin Type="__PLACEHOLDER__" Source="__PLACEHOLDER__" /></ItemDef><ItemDef OID="IT.AE.AESEQ" Name="AESEQ" DataType="integer" Length="__PLACEHOLDER__" SASFieldName="AESEQ"><Description><TranslatedText>Sequence Number</TranslatedText></Description><def:Origin Type="__PLACEHOLDER__" Source="__PLACEHOLDER__" /></ItemDef><ItemDef OID="IT.AE.AETERM" Name="AETERM" DataType="text" Length="200" SASFieldName="AETERM"><Description><TranslatedText>Reported Term for the Adverse Event</TranslatedText></Description><def:Origin Type="Collected" Source="Investigator"><def:DocumentRef leafID="LF.acrf" /></def:Origin></ItemDef><ItemDef OID="IT.AE.AELLT" Name="AELLT" DataType="text" Length="__PLACEHOLDER__" SASFieldName="AELLT"><Description><TranslatedText>Lowest Level Term</TranslatedText></Description><def:Origin Type="__PLACEHOLDER__" Source="__PLACEHOLDER__" /></ItemDef><ItemDef OID="IT.AE.AELLTCD" Name="AELLTCD" DataType="integer" Length="__PLACEHOLDER__" SASFieldName="AELLTCD"><Description><TranslatedText>Lowest Level Term Code</TranslatedText></Description><def:Origin Type="__PLACEHOLDER__" Source="__PLACEHOLDER__" /></ItemDef><ItemDef OID="IT.AE.AEDECOD" Name="AEDECOD" DataType="text" Length="200" SASFieldName="AEDECOD"><Description><TranslatedText>Dictionary-Derived Term</TranslatedText></Description><def:Origin Type="Assigned" Source="Sponsor" /></ItemDef><ItemDef OID="IT.AE.AEPTCD" Name="AEPTCD" DataType="integer" Length="__PLACEHOLDER__" SASFieldName="AEPTCD"><Description><TranslatedText>Preferred Term Code</TranslatedText></Description><def:Origin Type="__PLACEHOLDER__" Source="__PLACEHOLDER__" /></ItemDef><ItemDef OID="IT.AE.AEHLT" Name="AEHLT" DataType="text" Length="__PLACEHOLDER__" SASFieldName="AEHLT"><Description><TranslatedText>High Level Term</TranslatedText></Description><def:Origin Type="__PLACEHOLDER__" Source="__PLACEHOLDER__" /></ItemDef><ItemDef OID="IT.AE.AEHLTCD" Name="AEHLTCD" DataType="integer" Length="__PLACEHOLDER__" SASFieldName="AEHLTCD"><Description><TranslatedText>High Level Term Code</TranslatedText></Description><def:Origin Type="__PLACEHOLDER__" Source="__PLACEHOLDER__" /></ItemDef><ItemDef OID="IT.AE.AEHLGT" Name="AEHLGT" DataType="text" Length="__PLACEHOLDER__" SASFieldName="AEHLGT"><Description><TranslatedText>High Level Group Term</TranslatedText></Description><def:Origin Type="__PLACEHOLDER__" Source="__PLACEHOLDER__" /></ItemDef><ItemDef OID="IT.AE.AEHLGTCD" Name="AEHLGTCD" DataType="integer" Length="__PLACEHOLDER__" SASFieldName="AEHLGTCD"><Description><TranslatedText>High Level Group Term Code</TranslatedText></Description><def:Origin Type="__PLACEHOLDER__" Source="__PLACEHOLDER__" /></ItemDef><ItemDef OID="IT.AE.AECAT" Name="AECAT" DataType="text" Length="200" SASFieldName="AECAT"><Description><TranslatedText>Category for Adverse Event</TranslatedText></Description><def:Origin Type="Assigned" Source="Sponsor" /></ItemDef><ItemDef OID="IT.AE.AESCAT" Name="AESCAT" DataType="text" Length="200" SASFieldName="AESCAT"><Description><TranslatedText>Subcategory for Adverse Event</TranslatedText></Description><def:Origin Type="Assigned" Source="Sponsor" /></ItemDef><ItemDef OID="IT.AE.AEPRESP" Name="AEPRESP" DataType="text" Length="1" SASFieldName="AEPRESP"><Description><TranslatedText>Pre-Specified Adverse Event</TranslatedText></Description><CodeListRef CodeListOID="CL.NY" /><def:Origin Type="Assigned" Source="Sponsor" /></ItemDef><ItemDef OID="IT.AE.AEBODSYS" Name="AEBODSYS" DataType="text" Length="__PLACEHOLDER__" SASFieldName="AEBODSYS"><Description><TranslatedText>Body System or Organ Class</TranslatedText></Description><def:Origin Type="__PLACEHOLDER__" Source="__PLACEHOLDER__" /></ItemDef><ItemDef OID="IT.AE.AEBDSYCD" Name="AEBDSYCD" DataType="integer" Length="__PLACEHOLDER__" SASFieldName="AEBDSYCD"><Description><TranslatedText>Body System or Organ Class Code</TranslatedText></Description><def:Origin Type="__PLACEHOLDER__" Source="__PLACEHOLDER__" /></ItemDef><ItemDef OID="IT.AE.AESOC" Name="AESOC" DataType="text" Length="__PLACEHOLDER__" SASFieldName="AESOC"><Description><TranslatedText>Primary System Organ Class</TranslatedText></Description><def:Origin Type="__PLACEHOLDER__" Source="__PLACEHOLDER__" /></ItemDef><ItemDef OID="IT.AE.AESOCCD" Name="AESOCCD" DataType="integer" Length="__PLACEHOLDER__" SASFieldName="AESOCCD"><Description><TranslatedText>Primary System Organ Class Code</TranslatedText></Description><def:Origin Type="__PLACEHOLDER__" Source="__PLACEHOLDER__" /></ItemDef><ItemDef OID="IT.AE.AELOC" Name="AELOC" DataType="text" Length="200" SASFieldName="AELOC"><Description><TranslatedText>Location of Event</TranslatedText></Description><CodeListRef CodeListOID="CL.LOC" /><def:Origin Type="Collected" Source="Investigator"><def:DocumentRef leafID="LF.acrf" /></def:Origin></ItemDef><ItemDef OID="IT.AE.AESEV" Name="AESEV" DataType="text" Length="20" SASFieldName="AESEV"><Description><TranslatedText>Severity/Intensity</TranslatedText></Description><CodeListRef CodeListOID="CL.AESEV" /><def:Origin Type="Collected" Source="Investigator"><def:DocumentRef leafID="LF.acrf" /></def:Origin></ItemDef><ItemDef OID="IT.AE.AESER" Name="AESER" DataType="text" Length="1" SASFieldName="AESER"><Description><TranslatedText>Serious Event</TranslatedText></Description><CodeListRef CodeListOID="CL.NY" /><def:Origin Type="Collected" Source="Investigator"><def:DocumentRef leafID="LF.acrf" /></def:Origin></ItemDef><ItemDef OID="IT.AE.AEACN" Name="AEACN" DataType="text" Length="200" SASFieldName="AEACN"><Description><TranslatedText>Action Taken with Study Treatment</TranslatedText></Description><CodeListRef CodeListOID="CL.ACN" /><def:Origin Type="Collected" Source="Investigator"><def:DocumentRef leafID="LF.acrf" /></def:Origin></ItemDef><ItemDef OID="IT.AE.AEACNOTH" Name="AEACNOTH" DataType="text" Length="200" SASFieldName="AEACNOTH"><Description><TranslatedText>Other Action Taken</TranslatedText></Description><def:Origin Type="Collected" Source="Investigator"><def:DocumentRef leafID="LF.acrf" /></def:Origin></ItemDef><ItemDef OID="IT.AE.AEREL" Name="AEREL" DataType="text" Length="200" SASFieldName="AEREL"><Description><TranslatedText>Causality</TranslatedText></Description><def:Origin Type="Collected" Source="Investigator"><def:DocumentRef leafID="LF.acrf" /></def:Origin></ItemDef><ItemDef OID="IT.AE.AERELNST" Name="AERELNST" DataType="text" Length="200" SASFieldName="AERELNST"><Description><TranslatedText>Relationship to Non-Study Treatment</TranslatedText></Description><def:Origin Type="Collected" Source="Investigator"><def:DocumentRef leafID="LF.acrf" /></def:Origin></ItemDef><ItemDef OID="IT.AE.AEPATT" Name="AEPATT" DataType="text" Length="200" SASFieldName="AEPATT"><Description><TranslatedText>Pattern of Adverse Event</TranslatedText></Description><def:Origin Type="Collected" Source="Investigator"><def:DocumentRef leafID="LF.acrf" /></def:Origin></ItemDef><ItemDef OID="IT.AE.AEOUT" Name="AEOUT" DataType="text" Length="200" SASFieldName="AEOUT"><Description><TranslatedText>Outcome of Adverse Event</TranslatedText></Description><CodeListRef CodeListOID="CL.OUT" /><def:Origin Type="Collected" Source="Investigator"><def:DocumentRef leafID="LF.acrf" /></def:Origin></ItemDef><ItemDef OID="IT.AE.AESCAN" Name="AESCAN" DataType="text" Length="1" SASFieldName="AESCAN"><Description><TranslatedText>Involves Cancer</TranslatedText></Description><CodeListRef CodeListOID="CL.NY" /><def:Origin Type="Collected" Source="Investigator"><def:DocumentRef leafID="LF.acrf" /></def:Origin></ItemDef><ItemDef OID="IT.AE.AESCONG" Name="AESCONG" DataType="text" Length="1" SASFieldName="AESCONG"><Description><TranslatedText>Congenital Anomaly or Birth Defect</TranslatedText></Description><CodeListRef CodeListOID="CL.NY" /><def:Origin Type="Collected" Source="Investigator"><def:DocumentRef leafID="LF.acrf" /></def:Origin></ItemDef><ItemDef OID="IT.AE.AESDISAB" Name="AESDISAB" DataType="text" Length="1" SASFieldName="AESDISAB"><Description><TranslatedText>Persist or Signif Disability/Incapacity</TranslatedText></Description><CodeListRef CodeListOID="CL.NY" /><def:Origin Type="Collected" Source="Investigator"><def:DocumentRef leafID="LF.acrf" /></def:Origin></ItemDef><ItemDef OID="IT.AE.AESDTH" Name="AESDTH" DataType="text" Length="1" SASFieldName="AESDTH"><Description><TranslatedText>Results in Death</TranslatedText></Description><CodeListRef CodeListOID="CL.NY" /><def:Origin Type="Collected" Source="Investigator"><def:DocumentRef leafID="LF.acrf" /></def:Origin></ItemDef><ItemDef OID="IT.AE.AESHOSP" Name="AESHOSP" DataType="text" Length="1" SASFieldName="AESHOSP"><Description><TranslatedText>Requires or Prolongs Hospitalization</TranslatedText></Description><CodeListRef CodeListOID="CL.NY" /><def:Origin Type="Collected" Source="Investigator"><def:DocumentRef leafID="LF.acrf" /></def:Origin></ItemDef><ItemDef OID="IT.AE.AESLIFE" Name="AESLIFE" DataType="text" Length="1" SASFieldName="AESLIFE"><Description><TranslatedText>Is Life Threatening</TranslatedText></Description><CodeListRef CodeListOID="CL.NY" /><def:Origin Type="Collected" Source="Investigator"><def:DocumentRef leafID="LF.acrf" /></def:Origin></ItemDef><ItemDef OID="IT.AE.AESOD" Name="AESOD" DataType="text" Length="1" SASFieldName="AESOD"><Description><TranslatedText>Occurred with Overdose</TranslatedText></Description><CodeListRef CodeListOID="CL.NY" /><def:Origin Type="Collected" Source="Investigator"><def:DocumentRef leafID="LF.acrf" /></def:Origin></ItemDef><ItemDef OID="IT.AE.AESMIE" Name="AESMIE" DataType="text" Length="1" SASFieldName="AESMIE"><Description><TranslatedText>Other Medically Important Serious Event</TranslatedText></Description><CodeListRef CodeListOID="CL.NY" /><def:Origin Type="Collected" Source="Investigator"><def:DocumentRef leafID="LF.acrf" /></def:Origin></ItemDef><ItemDef OID="IT.AE.AECONTRT" Name="AECONTRT" DataType="text" Length="1" SASFieldName="AECONTRT"><Description><TranslatedText>Concomitant or Additional Trtmnt Given</TranslatedText></Description><CodeListRef CodeListOID="CL.NY" /><def:Origin Type="Collected" Source="Investigator"><def:DocumentRef leafID="LF.acrf" /></def:Origin></ItemDef><ItemDef OID="IT.AE.AETOXGR" Name="AETOXGR" DataType="text" Length="1" SASFieldName="AETOXGR"><Description><TranslatedText>Standard Toxicity Grade</TranslatedText></Description><def:Origin Type="Collected" Source="Investigator"><def:DocumentRef leafID="LF.acrf" /></def:Origin></ItemDef><ItemDef OID="IT.AE.AESTDTC" Name="AESTDTC" DataType="datetime" SASFieldName="AESTDTC"><Description><TranslatedText>Start Date/Time of Adverse Event</TranslatedText></Description><def:Origin Type="Collected" Source="Investigator"><def:DocumentRef leafID="LF.acrf" /></def:Origin></ItemDef><ItemDef OID="IT.AE.AEENDTC" Name="AEENDTC" DataType="datetime" SASFieldName="AEENDTC"><Description><TranslatedText>End Date/Time of Adverse Event</TranslatedText></Description><def:Origin Type="Collected" Source="Investigator"><def:DocumentRef leafID="LF.acrf" /></def:Origin></ItemDef><ItemDef OID="IT.AE.AEENRF" Name="AEENRF" DataType="text" Length="20" SASFieldName="AEENRF"><Description><TranslatedText>End Relative to Reference Period</TranslatedText></Description><CodeListRef CodeListOID="CL.STENRF" /><def:Origin Type="Assigned" Source="Sponsor" /></ItemDef><ItemDef OID="IT.AE.AEENRTPT" Name="AEENRTPT" DataType="text" Length="20" SASFieldName="AEENRTPT"><Description><TranslatedText>End Relative to Reference Time Point</TranslatedText></Description><CodeListRef CodeListOID="CL.STENRF" /><def:Origin Type="Assigned" Source="Sponsor" /></ItemDef><ItemDef OID="IT.AE.AEENTPT" Name="AEENTPT" DataType="text" Length="20" SASFieldName="AEENTPT"><Description><TranslatedText>End Reference Time Point</TranslatedText></Description><def:Origin Type="Assigned" Source="Sponsor" /></ItemDef><ItemDef OID="IT.TS.STUDYID" Name="STUDYID" DataType="text" Length="__PLACEHOLDER__" SASFieldName="STUDYID"><Description><TranslatedText>Study Identifier</TranslatedText></Description><def:Origin Type="__PLACEHOLDER__" Source="__PLACEHOLDER__" /></ItemDef><ItemDef OID="IT.TS.DOMAIN" Name="DOMAIN" DataType="text" Length="__PLACEHOLDER__" SASFieldName="DOMAIN"><Description><TranslatedText>Domain Abbreviation</TranslatedText></Description><def:Origin Type="__PLACEHOLDER__" Source="__PLACEHOLDER__" /></ItemDef><ItemDef OID="IT.TS.TSSEQ" Name="TSSEQ" DataType="integer" Length="__PLACEHOLDER__" SASFieldName="TSSEQ"><Description><TranslatedText>Sequence Number</TranslatedText></Description><def:Origin Type="__PLACEHOLDER__" Source="__PLACEHOLDER__" /></ItemDef><ItemDef OID="IT.TS.TSPARMCD" Name="TSPARMCD" DataType="text" Length="__PLACEHOLDER__" SASFieldName="TSPARMCD"><Description><TranslatedText>Trial Summary Parameter Short Name</TranslatedText></Description><CodeListRef CodeListOID="CL.TSPARMCD" /><def:Origin Type="__PLACEHOLDER__" Source="__PLACEHOLDER__" /><def:ValueListRef ValueListOID="VL.TS.TSPARMCD" /></ItemDef><ItemDef OID="IT.TS.TSPARM" Name="TSPARM" DataType="text" Length="__PLACEHOLDER__" SASFieldName="TSPARM"><Description><TranslatedText>Trial Summary Parameter</TranslatedText></Description><CodeListRef CodeListOID="CL.TSPARM" /><def:Origin Type="__PLACEHOLDER__" Source="__PLACEHOLDER__" /></ItemDef><ItemDef OID="IT.TS.TSVAL" Name="TSVAL" DataType="text" Length="__PLACEHOLDER__" SASFieldName="TSVAL"><Description><TranslatedText>Parameter Value</TranslatedText></Description><def:Origin Type="__PLACEHOLDER__" Source="__PLACEHOLDER__" /></ItemDef><ItemDef OID="IT.TS.TSVALCD" Name="TSVALCD" DataType="text" Length="__PLACEHOLDER__" SASFieldName="TSVALCD"><Description><TranslatedText>Parameter Value Code</TranslatedText></Description><def:Origin Type="__PLACEHOLDER__" Source="__PLACEHOLDER__" /></ItemDef><ItemDef OID="IT.TS.TSVCDREF" Name="TSVCDREF" DataType="text" Length="__PLACEHOLDER__" SASFieldName="TSVCDREF"><Description><TranslatedText>Name of the Reference Terminology</TranslatedText></Description><CodeListRef CodeListOID="CL.DICTNAM" /><def:Origin Type="__PLACEHOLDER__" Source="__PLACEHOLDER__" /></ItemDef><ItemDef OID="IT.TS.TSVCDVER" Name="TSVCDVER" DataType="text" Length="__PLACEHOLDER__" SASFieldName="TSVCDVER"><Description><TranslatedText>Version of the Reference Terminology</TranslatedText></Description><def:Origin Type="__PLACEHOLDER__" Source="__PLACEHOLDER__" /></ItemDef><ItemDef OID="IT.TA.STUDYID" Name="STUDYID" DataType="text" Length="__PLACEHOLDER__" SASFieldName="STUDYID"><Description><TranslatedText>Study Identifier</TranslatedText></Description><def:Origin Type="__PLACEHOLDER__" Source="__PLACEHOLDER__" /></ItemDef><ItemDef OID="IT.TA.DOMAIN" Name="DOMAIN" DataType="text" Length="__PLACEHOLDER__" SASFieldName="DOMAIN"><Description><TranslatedText>Domain Abbreviation</TranslatedText></Description><def:Origin Type="__PLACEHOLDER__" Source="__PLACEHOLDER__" /></ItemDef><ItemDef OID="IT.TA.ARMCD" Name="ARMCD" DataType="text" Length="__PLACEHOLDER__" SASFieldName="ARMCD"><Description><TranslatedText>Planned Arm Code</TranslatedText></Description><CodeListRef CodeListOID="CL.ARMCD" /><def:Origin Type="__PLACEHOLDER__" Source="__PLACEHOLDER__" /></ItemDef><ItemDef OID="IT.TA.ARM" Name="ARM" DataType="text" Length="__PLACEHOLDER__" SASFieldName="ARM"><Description><TranslatedText>Description of Planned Arm</TranslatedText></Description><CodeListRef CodeListOID="CL.ARM" /><def:Origin Type="__PLACEHOLDER__" Source="__PLACEHOLDER__" /></ItemDef><ItemDef OID="IT.TA.TAETORD" Name="TAETORD" DataType="integer" Length="__PLACEHOLDER__" SASFieldName="TAETORD"><Description><TranslatedText>Planned Order of Element within Arm</TranslatedText></Description><def:Origin Type="__PLACEHOLDER__" Source="__PLACEHOLDER__" /></ItemDef><ItemDef OID="IT.TA.ETCD" Name="ETCD" DataType="text" Length="__PLACEHOLDER__" SASFieldName="ETCD"><Description><TranslatedText>Element Code</TranslatedText></Description><CodeListRef CodeListOID="CL.ETCD" /><def:Origin Type="__PLACEHOLDER__" Source="__PLACEHOLDER__" /></ItemDef><ItemDef OID="IT.TA.ELEMENT" Name="ELEMENT" DataType="text" Length="__PLACEHOLDER__" SASFieldName="ELEMENT"><Description><TranslatedText>Description of Element</TranslatedText></Description><CodeListRef CodeListOID="CL.ELEMENT" /><def:Origin Type="__PLACEHOLDER__" Source="__PLACEHOLDER__" /></ItemDef><ItemDef OID="IT.TA.TABRANCH" Name="TABRANCH" DataType="text" Length="__PLACEHOLDER__" SASFieldName="TABRANCH"><Description><TranslatedText>Branch</TranslatedText></Description><def:Origin Type="__PLACEHOLDER__" Source="__PLACEHOLDER__" /></ItemDef><ItemDef OID="IT.TA.TATRANS" Name="TATRANS" DataType="text" Length="__PLACEHOLDER__" SASFieldName="TATRANS"><Description><TranslatedText>Transition Rule</TranslatedText></Description><def:Origin Type="__PLACEHOLDER__" Source="__PLACEHOLDER__" /></ItemDef><ItemDef OID="IT.TA.EPOCH" Name="EPOCH" DataType="text" Length="__PLACEHOLDER__" SASFieldName="EPOCH"><Description><TranslatedText>Epoch</TranslatedText></Description><CodeListRef CodeListOID="CL.EPOCH" /><def:Origin Type="__PLACEHOLDER__" Source="__PLACEHOLDER__" /></ItemDef><ItemDef OID="IT.TE.STUDYID" Name="STUDYID" DataType="text" Length="__PLACEHOLDER__" SASFieldName="STUDYID"><Description><TranslatedText>Study Identifier</TranslatedText></Description><def:Origin Type="__PLACEHOLDER__" Source="__PLACEHOLDER__" /></ItemDef><ItemDef OID="IT.TE.DOMAIN" Name="DOMAIN" DataType="text" Length="__PLACEHOLDER__" SASFieldName="DOMAIN"><Description><TranslatedText>Domain Abbreviation</TranslatedText></Description><def:Origin Type="__PLACEHOLDER__" Source="__PLACEHOLDER__" /></ItemDef><ItemDef OID="IT.TE.ETCD" Name="ETCD" DataType="text" Length="__PLACEHOLDER__" SASFieldName="ETCD"><Description><TranslatedText>Element Code</TranslatedText></Description><CodeListRef CodeListOID="CL.ETCD" /><def:Origin Type="__PLACEHOLDER__" Source="__PLACEHOLDER__" /></ItemDef><ItemDef OID="IT.TE.ELEMENT" Name="ELEMENT" DataType="text" Length="__PLACEHOLDER__" SASFieldName="ELEMENT"><Description><TranslatedText>Description of Element</TranslatedText></Description><CodeListRef CodeListOID="CL.ELEMENT" /><def:Origin Type="__PLACEHOLDER__" Source="__PLACEHOLDER__" /></ItemDef><ItemDef OID="IT.TE.TESTRL" Name="TESTRL" DataType="text" Length="__PLACEHOLDER__" SASFieldName="TESTRL"><Description><TranslatedText>Rule for Start of Element</TranslatedText></Description><def:Origin Type="__PLACEHOLDER__" Source="__PLACEHOLDER__" /></ItemDef><ItemDef OID="IT.TI.STUDYID" Name="STUDYID" DataType="text" Length="__PLACEHOLDER__" SASFieldName="STUDYID"><Description><TranslatedText>Study Identifier</TranslatedText></Description><def:Origin Type="__PLACEHOLDER__" Source="__PLACEHOLDER__" /></ItemDef><ItemDef OID="IT.TI.DOMAIN" Name="DOMAIN" DataType="text" Length="__PLACEHOLDER__" SASFieldName="DOMAIN"><Description><TranslatedText>Domain Abbreviation</TranslatedText></Description><def:Origin Type="__PLACEHOLDER__" Source="__PLACEHOLDER__" /></ItemDef><ItemDef OID="IT.TI.IETESTCD" Name="IETESTCD" DataType="text" Length="__PLACEHOLDER__" SASFieldName="IETESTCD"><Description><TranslatedText>Incl/Excl Criterion Short Name</TranslatedText></Description><CodeListRef CodeListOID="CL.IETESTCD" /><def:Origin Type="__PLACEHOLDER__" Source="__PLACEHOLDER__" /></ItemDef><ItemDef OID="IT.TI.IETEST" Name="IETEST" DataType="text" Length="__PLACEHOLDER__" SASFieldName="IETEST"><Description><TranslatedText>Inclusion/Exclusion Criterion</TranslatedText></Description><CodeListRef CodeListOID="CL.IETEST" /><def:Origin Type="__PLACEHOLDER__" Source="__PLACEHOLDER__" /></ItemDef><ItemDef OID="IT.TI.IECAT" Name="IECAT" DataType="text" Length="__PLACEHOLDER__" SASFieldName="IECAT"