{
  "datasetJSONCreationDateTime": "2026-08-08T17:39:51.915132+00:00",
  "datasetJSONVersion": "1.1.0",
  "fileOID": "ODM.DEFINE21.d611c8de-4b6f-44ff-ade2-b82a6aab83d1",
  "studyOID": "ODM.LZZT - NEW.Version1.Design1",
  "metaDataVersionOID": "MDV.LZZT---NEW",
  "itemGroupOID": "IG.DEFINE.VARIABLES",
  "records": 311,
  "name": "variables",
  "label": "Variable Definitions",
  "columns": [
    {
      "itemOID": "DEFINE.VAR.DATASETOID",
      "name": "DatasetOID",
      "label": "Dataset OID",
      "dataType": "string",
      "keySequence": 1
    },
    {
      "itemOID": "DEFINE.VAR.ITEMOID",
      "name": "ItemOID",
      "label": "Item OID",
      "dataType": "string",
      "keySequence": 2
    },
    {
      "itemOID": "DEFINE.VAR.ORDERNUMBER",
      "name": "OrderNumber",
      "label": "Order Number",
      "dataType": "integer"
    },
    {
      "itemOID": "DEFINE.VAR.MANDATORY",
      "name": "Mandatory",
      "label": "Mandatory",
      "dataType": "string"
    },
    {
      "itemOID": "DEFINE.VAR.KEYSEQUENCE",
      "name": "KeySequence",
      "label": "Key Sequence",
      "dataType": "integer"
    },
    {
      "itemOID": "DEFINE.VAR.METHODOID",
      "name": "MethodOID",
      "label": "Method OID",
      "dataType": "string"
    },
    {
      "itemOID": "DEFINE.VAR.ROLE",
      "name": "Role",
      "label": "Role",
      "dataType": "string"
    },
    {
      "itemOID": "DEFINE.VAR.ROLECODELISTOID",
      "name": "RoleCodeListOID",
      "label": "Role CodeList OID",
      "dataType": "string"
    },
    {
      "itemOID": "DEFINE.VAR.ISNONSTANDARD",
      "name": "IsNonStandard",
      "label": "Is Non-Standard",
      "dataType": "string"
    },
    {
      "itemOID": "DEFINE.VAR.HASNODATA",
      "name": "HasNoData",
      "label": "Has No Data",
      "dataType": "string"
    },
    {
      "itemOID": "DEFINE.VAR.NAME",
      "name": "Name",
      "label": "Variable Name",
      "dataType": "string"
    },
    {
      "itemOID": "DEFINE.VAR.DATATYPE",
      "name": "DataType",
      "label": "Data Type",
      "dataType": "string"
    },
    {
      "itemOID": "DEFINE.VAR.LENGTH",
      "name": "Length",
      "label": "Length",
      "dataType": "integer"
    },
    {
      "itemOID": "DEFINE.VAR.SIGNIFICANTDIGITS",
      "name": "SignificantDigits",
      "label": "Significant Digits",
      "dataType": "integer"
    },
    {
      "itemOID": "DEFINE.VAR.SASFIELDNAME",
      "name": "SASFieldName",
      "label": "SAS Field Name",
      "dataType": "string"
    },
    {
      "itemOID": "DEFINE.VAR.DISPLAYFORMAT",
      "name": "DisplayFormat",
      "label": "Display Format",
      "dataType": "string"
    },
    {
      "itemOID": "DEFINE.VAR.COMMENTOID",
      "name": "CommentOID",
      "label": "Comment OID",
      "dataType": "string"
    },
    {
      "itemOID": "DEFINE.VAR.DESCRIPTIONTEXT",
      "name": "DescriptionText",
      "label": "Description",
      "dataType": "string"
    },
    {
      "itemOID": "DEFINE.VAR.CODELISTOID",
      "name": "CodeListOID",
      "label": "CodeList OID",
      "dataType": "string"
    },
    {
      "itemOID": "DEFINE.VAR.VALUELISTOID",
      "name": "ValueListOID",
      "label": "ValueList OID",
      "dataType": "string"
    },
    {
      "itemOID": "DEFINE.VAR.ORIGINTYPE",
      "name": "OriginType",
      "label": "Origin Type",
      "dataType": "string"
    },
    {
      "itemOID": "DEFINE.VAR.ORIGINSOURCE",
      "name": "OriginSource",
      "label": "Origin Source",
      "dataType": "string"
    }
  ],
  "rows": [
    [
      "IG.DS",
      "IT.DS.STUDYID",
      1,
      "Yes",
      null,
      null,
      "Identifier",
      null,
      null,
      null,
      "STUDYID",
      "text",
      "__PLACEHOLDER__",
      null,
      "STUDYID",
      null,
      null,
      "Study Identifier",
      null,
      null,
      "__PLACEHOLDER__",
      "__PLACEHOLDER__"
    ],
    [
      "IG.DS",
      "IT.DS.DOMAIN",
      2,
      "Yes",
      null,
      null,
      "Identifier",
      null,
      null,
      null,
      "DOMAIN",
      "text",
      "__PLACEHOLDER__",
      null,
      "DOMAIN",
      null,
      null,
      "Domain Abbreviation",
      null,
      null,
      "__PLACEHOLDER__",
      "__PLACEHOLDER__"
    ],
    [
      "IG.DS",
      "IT.DS.USUBJID",
      3,
      "Yes",
      null,
      null,
      "Identifier",
      null,
      null,
      null,
      "USUBJID",
      "text",
      "__PLACEHOLDER__",
      null,
      "USUBJID",
      null,
      null,
      "Unique Subject Identifier",
      null,
      null,
      "__PLACEHOLDER__",
      "__PLACEHOLDER__"
    ],
    [
      "IG.DS",
      "IT.DS.DSSEQ",
      4,
      "Yes",
      null,
      null,
      "Identifier",
      null,
      null,
      null,
      "DSSEQ",
      "integer",
      "__PLACEHOLDER__",
      null,
      "DSSEQ",
      null,
      null,
      "Sequence Number",
      null,
      null,
      "__PLACEHOLDER__",
      "__PLACEHOLDER__"
    ],
    [
      "IG.DS",
      "IT.DS.DSTERM",
      5,
      "Yes",
      null,
      null,
      "Topic",
      null,
      null,
      null,
      "DSTERM",
      "text",
      200,
      null,
      "DSTERM",
      null,
      null,
      "Reported Term for the Disposition Event",
      null,
      null,
      "Collected",
      "Investigator"
    ],
    [
      "IG.DS",
      "IT.DS.DSDECOD",
      6,
      "Yes",
      null,
      null,
      "Synonym Qualifier",
      null,
      null,
      null,
      "DSDECOD",
      "text",
      200,
      null,
      "DSDECOD",
      null,
      null,
      "Standardized Disposition Term",
      "CL.NCOMPLT",
      null,
      "Assigned",
      "Sponsor"
    ],
    [
      "IG.DS",
      "IT.DS.DSCAT",
      7,
      "No",
      null,
      null,
      "Grouping Qualifier",
      null,
      null,
      null,
      "DSCAT",
      "text",
      200,
      null,
      "DSCAT",
      null,
      null,
      "Category for Disposition Event",
      "CL.DSCAT",
      null,
      "Assigned",
      "Sponsor"
    ],
    [
      "IG.DS",
      "IT.DS.DSSCAT",
      8,
      "No",
      null,
      null,
      "Grouping Qualifier",
      null,
      null,
      null,
      "DSSCAT",
      "text",
      200,
      null,
      "DSSCAT",
      null,
      null,
      "Subcategory for Disposition Event",
      "CL.DSSCAT",
      null,
      "Assigned",
      "Sponsor"
    ],
    [
      "IG.DS",
      "IT.DS.DSSTDTC",
      9,
      "No",
      null,
      null,
      "Timing",
      null,
      null,
      null,
      "DSSTDTC",
      "datetime",
      null,
      null,
      "DSSTDTC",
      null,
      null,
      "Start Date/Time of Disposition Event",
      null,
      null,
      "Collected",
      "Investigator"
    ],
    [
      "IG.DS",
      "IT.DS.DSSTDY",
      10,
      "No",
      null,
      null,
      "Timing",
      null,
      null,
      null,
      "DSSTDY",
      "integer",
      "__PLACEHOLDER__",
      null,
      "DSSTDY",
      null,
      null,
      "Study Day of Start of Disposition Event",
      null,
      null,
      "__PLACEHOLDER__",
      "__PLACEHOLDER__"
    ],
    [
      "IG.DM",
      "IT.DM.STUDYID",
      1,
      "Yes",
      null,
      null,
      "Identifier",
      null,
      null,
      null,
      "STUDYID",
      "text",
      "__PLACEHOLDER__",
      null,
      "STUDYID",
      null,
      null,
      "Study Identifier",
      null,
      null,
      "__PLACEHOLDER__",
      "__PLACEHOLDER__"
    ],
    [
      "IG.DM",
      "IT.DM.DOMAIN",
      2,
      "Yes",
      null,
      null,
      "Identifier",
      null,
      null,
      null,
      "DOMAIN",
      "text",
      "__PLACEHOLDER__",
      null,
      "DOMAIN",
      null,
      null,
      "Domain Abbreviation",
      null,
      null,
      "__PLACEHOLDER__",
      "__PLACEHOLDER__"
    ],
    [
      "IG.DM",
      "IT.DM.USUBJID",
      3,
      "Yes",
      null,
      null,
      "Identifier",
      null,
      null,
      null,
      "USUBJID",
      "text",
      "__PLACEHOLDER__",
      null,
      "USUBJID",
      null,
      null,
      "Unique Subject Identifier",
      null,
      null,
      "__PLACEHOLDER__",
      "__PLACEHOLDER__"
    ],
    [
      "IG.DM",
      "IT.DM.SUBJID",
      4,
      "Yes",
      null,
      null,
      "Topic",
      null,
      null,
      null,
      "SUBJID",
      "text",
      "__PLACEHOLDER__",
      null,
      "SUBJID",
      null,
      null,
      "Subject Identifier for the Study",
      null,
      null,
      "__PLACEHOLDER__",
      "__PLACEHOLDER__"
    ],
    [
      "IG.DM",
      "IT.DM.RFSTDTC",
      5,
      "No",
      null,
      null,
      "Record Qualifier",
      null,
      null,
      null,
      "RFSTDTC",
      "datetime",
      null,
      null,
      "RFSTDTC",
      null,
      null,
      "Subject Reference Start Date/Time",
      null,
      null,
      "__PLACEHOLDER__",
      "__PLACEHOLDER__"
    ],
    [
      "IG.DM",
      "IT.DM.RFENDTC",
      6,
      "No",
      null,
      null,
      "Record Qualifier",
      null,
      null,
      null,
      "RFENDTC",
      "datetime",
      null,
      null,
      "RFENDTC",
      null,
      null,
      "Subject Reference End Date/Time",
      null,
      null,
      "__PLACEHOLDER__",
      "__PLACEHOLDER__"
    ],
    [
      "IG.DM",
      "IT.DM.RFXSTDTC",
      7,
      "No",
      null,
      null,
      "Record Qualifier",
      null,
      null,
      null,
      "RFXSTDTC",
      "datetime",
      null,
      null,
      "RFXSTDTC",
      null,
      null,
      "Date/Time of First Study Treatment",
      null,
      null,
      "__PLACEHOLDER__",
      "__PLACEHOLDER__"
    ],
    [
      "IG.DM",
      "IT.DM.RFXENDTC",
      8,
      "No",
      null,
      null,
      "Record Qualifier",
      null,
      null,
      null,
      "RFXENDTC",
      "datetime",
      null,
      null,
      "RFXENDTC",
      null,
      null,
      "Date/Time of Last Study Treatment",
      null,
      null,
      "__PLACEHOLDER__",
      "__PLACEHOLDER__"
    ],
    [
      "IG.DM",
      "IT.DM.RFICDTC",
      9,
      "No",
      null,
      null,
      "Record Qualifier",
      null,
      null,
      null,
      "RFICDTC",
      "datetime",
      null,
      null,
      "RFICDTC",
      null,
      null,
      "Date/Time of Informed Consent",
      null,
      null,
      "__PLACEHOLDER__",
      "__PLACEHOLDER__"
    ],
    [
      "IG.DM",
      "IT.DM.RFPENDTC",
      10,
      "No",
      null,
      null,
      "Record Qualifier",
      null,
      null,
      null,
      "RFPENDTC",
      "datetime",
      null,
      null,
      "RFPENDTC",
      null,
      null,
      "Date/Time of End of Participation",
      null,
      null,
      "__PLACEHOLDER__",
      "__PLACEHOLDER__"
    ],
    [
      "IG.DM",
      "IT.DM.DTHDTC",
      11,
      "No",
      null,
      null,
      "Record Qualifier",
      null,
      null,
      null,
      "DTHDTC",
      "datetime",
      null,
      null,
      "DTHDTC",
      null,
      null,
      "Date/Time of Death",
      null,
      null,
      "__PLACEHOLDER__",
      "__PLACEHOLDER__"
    ],
    [
      "IG.DM",
      "IT.DM.DTHFL",
      12,
      "No",
      null,
      null,
      "Record Qualifier",
      null,
      null,
      null,
      "DTHFL",
      "text",
      "__PLACEHOLDER__",
      null,
      "DTHFL",
      null,
      null,
      "Subject Death Flag",
      "CL.NY",
      null,
      "__PLACEHOLDER__",
      "__PLACEHOLDER__"
    ],
    [
      "IG.DM",
      "IT.DM.SITEID",
      13,
      "Yes",
      null,
      null,
      "Record Qualifier",
      null,
      null,
      null,
      "SITEID",
      "text",
      "__PLACEHOLDER__",
      null,
      "SITEID",
      null,
      null,
      "Study Site Identifier",
      null,
      null,
      "__PLACEHOLDER__",
      "__PLACEHOLDER__"
    ],
    [
      "IG.DM",
      "IT.DM.AGE",
      14,
      "No",
      null,
      null,
      "Record Qualifier",
      null,
      null,
      null,
      "AGE",
      "float",
      6,
      2,
      "AGE",
      "3.2",
      null,
      "Age",
      null,
      null,
      "Collected",
      "Investigator"
    ],
    [
      "IG.DM",
      "IT.DM.AGEU",
      15,
      "No",
      null,
      null,
      "Variable Qualifier",
      null,
      null,
      null,
      "AGEU",
      "text",
      20,
      null,
      "AGEU",
      null,
      null,
      "Age Units",
      "CL.AGEU",
      null,
      "Collected",
      "Investigator"
    ],
    [
      "IG.DM",
      "IT.DM.SEX",
      16,
      "Yes",
      null,
      null,
      "Record Qualifier",
      null,
      null,
      null,
      "SEX",
      "text",
      100,
      null,
      "SEX",
      null,
      null,
      "Sex",
      "CL.SEX",
      null,
      "Collected",
      "Investigator"
    ],
    [
      "IG.DM",
      "IT.DM.RACE",
      17,
      "No",
      null,
      null,
      "Record Qualifier",
      null,
      null,
      null,
      "RACE",
      "text",
      100,
      null,
      "RACE",
      null,
      null,
      "Race",
      "CL.RACE",
      null,
      "Collected",
      "Investigator"
    ],
    [
      "IG.DM",
      "IT.DM.ETHNIC",
      18,
      "No",
      null,
      null,
      "Record Qualifier",
      null,
      null,
      null,
      "ETHNIC",
      "text",
      100,
      null,
      "ETHNIC",
      null,
      null,
      "Ethnicity",
      "CL.ETHNIC",
      null,
      "Collected",
      "Investigator"
    ],
    [
      "IG.DM",
      "IT.DM.ARMCD",
      19,
      "No",
      null,
      null,
      "Record Qualifier",
      null,
      null,
      null,
      "ARMCD",
      "text",
      "__PLACEHOLDER__",
      null,
      "ARMCD",
      null,
      null,
      "Planned Arm Code",
      null,
      null,
      "__PLACEHOLDER__",
      "__PLACEHOLDER__"
    ],
    [
      "IG.DM",
      "IT.DM.ARM",
      20,
      "No",
      null,
      null,
      "Synonym Qualifier",
      null,
      null,
      null,
      "ARM",
      "text",
      "__PLACEHOLDER__",
      null,
      "ARM",
      null,
      null,
      "Description of Planned Arm",
      null,
      null,
      "__PLACEHOLDER__",
      "__PLACEHOLDER__"
    ],
    [
      "IG.DM",
      "IT.DM.ACTARMCD",
      21,
      "No",
      null,
      null,
      "Record Qualifier",
      null,
      null,
      null,
      "ACTARMCD",
      "text",
      "__PLACEHOLDER__",
      null,
      "ACTARMCD",
      null,
      null,
      "Actual Arm Code",
      null,
      null,
      "__PLACEHOLDER__",
      "__PLACEHOLDER__"
    ],
    [
      "IG.DM",
      "IT.DM.ACTARM",
      22,
      "No",
      null,
      null,
      "Synonym Qualifier",
      null,
      null,
      null,
      "ACTARM",
      "text",
      "__PLACEHOLDER__",
      null,
      "ACTARM",
      null,
      null,
      "Description of Actual Arm",
      null,
      null,
      "__PLACEHOLDER__",
      "__PLACEHOLDER__"
    ],
    [
      "IG.DM",
      "IT.DM.ARMNRS",
      23,
      "No",
      null,
      null,
      "Record Qualifier",
      null,
      null,
      null,
      "ARMNRS",
      "text",
      "__PLACEHOLDER__",
      null,
      "ARMNRS",
      null,
      null,
      "Reason Arm and/or Actual Arm is Null",
      "CL.ARMNULRS",
      null,
      "__PLACEHOLDER__",
      "__PLACEHOLDER__"
    ],
    [
      "IG.DM",
      "IT.DM.ACTARMUD",
      24,
      "No",
      null,
      null,
      "Record Qualifier",
      null,
      null,
      null,
      "ACTARMUD",
      "text",
      "__PLACEHOLDER__",
      null,
      "ACTARMUD",
      null,
      null,
      "Description of Unplanned Actual Arm",
      null,
      null,
      "__PLACEHOLDER__",
      "__PLACEHOLDER__"
    ],
    [
      "IG.DM",
      "IT.DM.COUNTRY",
      25,
      "Yes",
      null,
      null,
      "Record Qualifier",
      null,
      null,
      null,
      "COUNTRY",
      "text",
      "__PLACEHOLDER__",
      null,
      "COUNTRY",
      null,
      null,
      "Country",
      null,
      null,
      "__PLACEHOLDER__",
      "__PLACEHOLDER__"
    ],
    [
      "IG.DM",
      "IT.DM.DMDTC",
      26,
      "No",
      null,
      null,
      "Timing",
      null,
      null,
      null,
      "DMDTC",
      "datetime",
      null,
      null,
      "DMDTC",
      null,
      null,
      "Date/Time of Collection",
      null,
      null,
      "__PLACEHOLDER__",
      "__PLACEHOLDER__"
    ],
    [
      "IG.SC",
      "IT.SC.STUDYID",
      1,
      "Yes",
      null,
      null,
      "Identifier",
      null,
      null,
      null,
      "STUDYID",
      "text",
      "__PLACEHOLDER__",
      null,
      "STUDYID",
      null,
      null,
      "Study Identifier",
      null,
      null,
      "__PLACEHOLDER__",
      "__PLACEHOLDER__"
    ],
    [
      "IG.SC",
      "IT.SC.DOMAIN",
      2,
      "Yes",
      null,
      null,
      "Identifier",
      null,
      null,
      null,
      "DOMAIN",
      "text",
      "__PLACEHOLDER__",
      null,
      "DOMAIN",
      null,
      null,
      "Domain Abbreviation",
      null,
      null,
      "__PLACEHOLDER__",
      "__PLACEHOLDER__"
    ],
    [
      "IG.SC",
      "IT.SC.USUBJID",
      3,
      "Yes",
      null,
      null,
      "Identifier",
      null,
      null,
      null,
      "USUBJID",
      "text",
      "__PLACEHOLDER__",
      null,
      "USUBJID",
      null,
      null,
      "Unique Subject Identifier",
      null,
      null,
      "__PLACEHOLDER__",
      "__PLACEHOLDER__"
    ],
    [
      "IG.SC",
      "IT.SC.SCSEQ",
      4,
      "Yes",
      null,
      null,
      "Identifier",
      null,
      null,
      null,
      "SCSEQ",
      "integer",
      "__PLACEHOLDER__",
      null,
      "SCSEQ",
      null,
      null,
      "Sequence Number",
      null,
      null,
      "__PLACEHOLDER__",
      "__PLACEHOLDER__"
    ],
    [
      "IG.SC",
      "IT.SC.SCTESTCD",
      5,
      "Yes",
      null,
      null,
      "Topic",
      null,
      null,
      null,
      "SCTESTCD",
      "text",
      "__PLACEHOLDER__",
      null,
      "SCTESTCD",
      null,
      null,
      "Subject Characteristic Short Name",
      "CL.SCTESTCD",
      null,
      "__PLACEHOLDER__",
      "__PLACEHOLDER__"
    ],
    [
      "IG.SC",
      "IT.SC.SCTEST",
      6,
      "Yes",
      null,
      null,
      "Synonym Qualifier",
      null,
      null,
      null,
      "SCTEST",
      "text",
      "__PLACEHOLDER__",
      null,
      "SCTEST",
      null,
      null,
      "Subject Characteristic",
      "CL.SCTEST",
      null,
      "__PLACEHOLDER__",
      "__PLACEHOLDER__"
    ],
    [
      "IG.SC",
      "IT.SC.SCORRES",
      7,
      "No",
      null,
      null,
      "Result Qualifier",
      null,
      null,
      null,
      "SCORRES",
      "text",
      100,
      null,
      "SCORRES",
      null,
      null,
      "Result or Finding in Original Units",
      null,
      "VL.SC.SCORRES",
      "Collected",
      "Investigator"
    ],
    [
      "IG.SC",
      "IT.SC.SCORRESU",
      8,
      "No",
      null,
      null,
      "Variable Qualifier",
      null,
      null,
      null,
      "SCORRESU",
      "text",
      "__PLACEHOLDER__",
      null,
      "SCORRESU",
      null,
      null,
      "Original Units",
      "CL.UNIT",
      "VL.SC.SCORRESU",
      "__PLACEHOLDER__",
      "__PLACEHOLDER__"
    ],
    [
      "IG.SC",
      "IT.SC.SCSTRESC",
      9,
      "No",
      null,
      null,
      "Result Qualifier",
      null,
      null,
      null,
      "SCSTRESC",
      "text",
      100,
      null,
      "SCSTRESC",
      null,
      null,
      "Character Result/Finding in Std Format",
      null,
      null,
      "Assigned",
      "Sponsor"
    ],
    [
      "IG.SC",
      "IT.SC.SCSTRESN",
      10,
      "No",
      null,
      null,
      "Result Qualifier",
      null,
      null,
      null,
      "SCSTRESN",
      "text",
      100,
      null,
      "SCSTRESN",
      null,
      null,
      "Numeric Result/Finding in Standard Units",
      null,
      null,
      "Assigned",
      "Sponsor"
    ],
    [
      "IG.SC",
      "IT.SC.SCSTRESU",
      11,
      "No",
      null,
      null,
      "Variable Qualifier",
      null,
      null,
      null,
      "SCSTRESU",
      "text",
      "__PLACEHOLDER__",
      null,
      "SCSTRESU",
      null,
      null,
      "Standard Units",
      "CL.UNIT",
      null,
      "__PLACEHOLDER__",
      "__PLACEHOLDER__"
    ],
    [
      "IG.SC",
      "IT.SC.SCDTC",
      12,
      "No",
      null,
      null,
      "Timing",
      null,
      null,
      null,
      "SCDTC",
      "datetime",
      null,
      null,
      "SCDTC",
      null,
      null,
      "Date/Time of Collection",
      null,
      null,
      "__PLACEHOLDER__",
      "__PLACEHOLDER__"
    ],
    [
      "IG.MH",
      "IT.MH.STUDYID",
      1,
      "Yes",
      null,
      null,
      "Identifier",
      null,
      null,
      null,
      "STUDYID",
      "text",
      "__PLACEHOLDER__",
      null,
      "STUDYID",
      null,
      null,
      "Study Identifier",
      null,
      null,
      "__PLACEHOLDER__",
      "__PLACEHOLDER__"
    ],
    [
      "IG.MH",
      "IT.MH.DOMAIN",
      2,
      "Yes",
      null,
      null,
      "Identifier",
      null,
      null,
      null,
      "DOMAIN",
      "text",
      "__PLACEHOLDER__",
      null,
      "DOMAIN",
      null,
      null,
      "Domain Abbreviation",
      null,
      null,
      "__PLACEHOLDER__",
      "__PLACEHOLDER__"
    ],
    [
      "IG.MH",
      "IT.MH.USUBJID",
      3,
      "Yes",
      null,
      null,
      "Identifier",
      null,
      null,
      null,
      "USUBJID",
      "text",
      "__PLACEHOLDER__",
      null,
      "USUBJID",
      null,
      null,
      "Unique Subject Identifier",
      null,
      null,
      "__PLACEHOLDER__",
      "__PLACEHOLDER__"
    ],
    [
      "IG.MH",
      "IT.MH.MHSEQ",
      4,
      "Yes",
      null,
      null,
      "Identifier",
      null,
      null,
      null,
      "MHSEQ",
      "integer",
      "__PLACEHOLDER__",
      null,
      "MHSEQ",
      null,
      null,
      "Sequence Number",
      null,
      null,
      "__PLACEHOLDER__",
      "__PLACEHOLDER__"
    ],
    [
      "IG.MH",
      "IT.MH.MHTERM",
      5,
      "Yes",
      null,
      null,
      "Topic",
      null,
      null,
      null,
      "MHTERM",
      "text",
      200,
      null,
      "MHTERM",
      null,
      null,
      "Reported Term for the Medical History",
      null,
      null,
      "Assigned",
      "Sponsor"
    ],
    [
      "IG.MH",
      "IT.MH.MHDECOD",
      6,
      "No",
      null,
      null,
      "Synonym Qualifier",
      null,
      null,
      null,
      "MHDECOD",
      "text",
      200,
      null,
      "MHDECOD",
      null,
      null,
      "Dictionary-Derived Term",
      null,
      null,
      "Assigned",
      "Sponsor"
    ],
    [
      "IG.MH",
      "IT.MH.MHPRESP",
      7,
      "No",
      null,
      null,
      "Variable Qualifier",
      null,
      null,
      null,
      "MHPRESP",
      "text",
      1,
      null,
      "MHPRESP",
      null,
      null,
      "Medical History Event Pre-Specified",
      "CL.NY",
      null,
      "Assigned",
      "Sponsor"
    ],
    [
      "IG.MH",
      "IT.MH.MHOCCUR",
      8,
      "No",
      null,
      null,
      "Record Qualifier",
      null,
      null,
      null,
      "MHOCCUR",
      "text",
      1,
      null,
      "MHOCCUR",
      null,
      null,
      "Medical History Occurrence",
      "CL.NY",
      null,
      "Collected",
      "Investigator"
    ],
    [
      "IG.MH",
      "IT.MH.MHENRF",
      9,
      "No",
      null,
      null,
      "Timing",
      null,
      null,
      null,
      "MHENRF",
      "text",
      20,
      null,
      "MHENRF",
      null,
      null,
      "End Relative to Reference Period",
      "CL.STENRF",
      null,
      "Assigned",
      "Sponsor"
    ],
    [
      "IG.MH",
      "IT.MH.MHENRTPT",
      10,
      "No",
      null,
      null,
      "Timing",
      null,
      null,
      null,
      "MHENRTPT",
      "text",
      20,
      null,
      "MHENRTPT",
      null,
      null,
      "End Relative to Reference Time Point",
      "CL.STENRF",
      null,
      "Assigned",
      "Sponsor"
    ],
    [
      "IG.MH",
      "IT.MH.MHENTPT",
      11,
      "No",
      null,
      null,
      "Timing",
      null,
      null,
      null,
      "MHENTPT",
      "text",
      20,
      null,
      "MHENTPT",
      null,
      null,
      "End Reference Time Point",
      null,
      null,
      "Assigned",
      "Sponsor"
    ],
    [
      "IG.SU",
      "IT.SU.STUDYID",
      1,
      "Yes",
      null,
      null,
      "Identifier",
      null,
      null,
      null,
      "STUDYID",
      "text",
      "__PLACEHOLDER__",
      null,
      "STUDYID",
      null,
      null,
      "Study Identifier",
      null,
      null,
      "__PLACEHOLDER__",
      "__PLACEHOLDER__"
    ],
    [
      "IG.SU",
      "IT.SU.DOMAIN",
      2,
      "Yes",
      null,
      null,
      "Identifier",
      null,
      null,
      null,
      "DOMAIN",
      "text",
      "__PLACEHOLDER__",
      null,
      "DOMAIN",
      null,
      null,
      "Domain Abbreviation",
      null,
      null,
      "__PLACEHOLDER__",
      "__PLACEHOLDER__"
    ],
    [
      "IG.SU",
      "IT.SU.USUBJID",
      3,
      "Yes",
      null,
      null,
      "Identifier",
      null,
      null,
      null,
      "USUBJID",
      "text",
      "__PLACEHOLDER__",
      null,
      "USUBJID",
      null,
      null,
      "Unique Subject Identifier",
      null,
      null,
      "__PLACEHOLDER__",
      "__PLACEHOLDER__"
    ],
    [
      "IG.SU",
      "IT.SU.SUSEQ",
      4,
      "Yes",
      null,
      null,
      "Identifier",
      null,
      null,
      null,
      "SUSEQ",
      "integer",
      "__PLACEHOLDER__",
      null,
      "SUSEQ",
      null,
      null,
      "Sequence Number",
      null,
      null,
      "__PLACEHOLDER__",
      "__PLACEHOLDER__"
    ],
    [
      "IG.SU",
      "IT.SU.SUTRT",
      5,
      "Yes",
      null,
      null,
      "Topic",
      null,
      null,
      null,
      "SUTRT",
      "text",
      200,
      null,
      "SUTRT",
      null,
      null,
      "Reported Name of Substance",
      null,
      null,
      "Collected",
      "Investigator"
    ],
    [
      "IG.SU",
      "IT.SU.SUCAT",
      6,
      "No",
      null,
      null,
      "Grouping Qualifier",
      null,
      null,
      null,
      "SUCAT",
      "text",
      200,
      null,
      "SUCAT",
      null,
      null,
      "Category for Substance Use",
      null,
      null,
      "Assigned",
      "Sponsor"
    ],
    [
      "IG.SU",
      "IT.SU.SUSCAT",
      7,
      "No",
      null,
      null,
      "Grouping Qualifier",
      null,
      null,
      null,
      "SUSCAT",
      "text",
      200,
      null,
      "SUSCAT",
      null,
      null,
      "Subcategory for Substance Use",
      null,
      null,
      "Assigned",
      "Sponsor"
    ],
    [
      "IG.SU",
      "IT.SU.SUPRESP",
      8,
      "No",
      null,
      null,
      "Variable Qualifier",
      null,
      null,
      null,
      "SUPRESP",
      "text",
      1,
      null,
      "SUPRESP",
      null,
      null,
      "SU Pre-Specified",
      "CL.NY",
      null,
      "Assigned",
      "Sponsor"
    ],
    [
      "IG.SU",
      "IT.SU.SUOCCUR",
      9,
      "No",
      null,
      null,
      "Record Qualifier",
      null,
      null,
      null,
      "SUOCCUR",
      "text",
      1,
      null,
      "SUOCCUR",
      null,
      null,
      "SU Occurrence",
      "CL.NY",
      null,
      "Collected",
      "Investigator"
    ],
    [
      "IG.SU",
      "IT.SU.SUDOSE",
      10,
      "No",
      null,
      null,
      "Record Qualifier",
      null,
      null,
      null,
      "SUDOSE",
      "float",
      12,
      4,
      "SUDOSE",
      "12.4",
      null,
      "Substance Use Consumption",
      null,
      null,
      "Collected",
      "Investigator"
    ],
    [
      "IG.SU",
      "IT.SU.SUDOSTXT",
      11,
      "No",
      null,
      null,
      "Record Qualifier",
      null,
      null,
      null,
      "SUDOSTXT",
      "text",
      40,
      null,
      "SUDOSTXT",
      null,
      null,
      "Substance Use Consumption Text",
      null,
      null,
      "Collected",
      "Investigator"
    ],
    [
      "IG.SU",
      "IT.SU.SUDOSU",
      12,
      "No",
      null,
      null,
      "Variable Qualifier",
      null,
      null,
      null,
      "SUDOSU",
      "text",
      40,
      null,
      "SUDOSU",
      null,
      null,
      "Consumption Units",
      "CL.UNIT",
      null,
      "Collected",
      "Investigator"
    ],
    [
      "IG.SU",
      "IT.SU.SUDOSFRQ",
      13,
      "No",
      null,
      null,
      "Variable Qualifier",
      null,
      null,
      null,
      "SUDOSFRQ",
      "text",
      40,
      null,
      "SUDOSFRQ",
      null,
      null,
      "Use Frequency Per Interval",
      "CL.FREQ",
      null,
      "Collected",
      "Investigator"
    ],
    [
      "IG.SU",
      "IT.SU.SUSTDTC",
      14,
      "No",
      null,
      null,
      "Timing",
      null,
      null,
      null,
      "SUSTDTC",
      "datetime",
      null,
      null,
      "SUSTDTC",
      null,
      null,
      "Start Date/Time of Substance Use",
      null,
      null,
      "Collected",
      "Investigator"
    ],
    [
      "IG.SU",
      "IT.SU.SUENDTC",
      15,
      "No",
      null,
      null,
      "Timing",
      null,
      null,
      null,
      "SUENDTC",
      "datetime",
      null,
      null,
      "SUENDTC",
      null,
      null,
      "End Date/Time of Substance Use",
      null,
      null,
      "Collected",
      "Investigator"
    ],
    [
      "IG.SU",
      "IT.SU.SUDUR",
      16,
      "No",
      null,
      null,
      "Timing",
      null,
      null,
      null,
      "SUDUR",
      "durationDatetime",
      null,
      null,
      "SUDUR",
      null,
      null,
      "Duration of Substance Use",
      null,
      null,
      "Collected",
      "Investigator"
    ],
    [
      "IG.SU",
      "IT.SU.SUSTRF",
      17,
      "No",
      null,
      null,
      "Timing",
      null,
      null,
      null,
      "SUSTRF",
      "text",
      20,
      null,
      "SUSTRF",
      null,
      null,
      "Start Relative to Reference Period",
      "CL.STENRF",
      null,
      "Assigned",
      "Sponsor"
    ],
    [
      "IG.SU",
      "IT.SU.SUENRF",
      18,
      "No",
      null,
      null,
      "Timing",
      null,
      null,
      null,
      "SUENRF",
      "text",
      20,
      null,
      "SUENRF",
      null,
      null,
      "End Relative to Reference Period",
      "CL.STENRF",
      null,
      "Assigned",
      "Sponsor"
    ],
    [
      "IG.SU",
      "IT.SU.SUSTRTPT",
      19,
      "No",
      null,
      null,
      "Timing",
      null,
      null,
      null,
      "SUSTRTPT",
      "text",
      20,
      null,
      "SUSTRTPT",
      null,
      null,
      "Start Relative to Reference Time Point",
      "CL.STENRF",
      null,
      "Assigned",
      "Sponsor"
    ],
    [
      "IG.SU",
      "IT.SU.SUSTTPT",
      20,
      "No",
      null,
      null,
      "Timing",
      null,
      null,
      null,
      "SUSTTPT",
      "text",
      20,
      null,
      "SUSTTPT",
      null,
      null,
      "Start Reference Time Point",
      null,
      null,
      "Assigned",
      "Sponsor"
    ],
    [
      "IG.SU",
      "IT.SU.SUENRTPT",
      21,
      "No",
      null,
      null,
      "Timing",
      null,
      null,
      null,
      "SUENRTPT",
      "text",
      20,
      null,
      "SUENRTPT",
      null,
      null,
      "End Relative to Reference Time Point",
      "CL.STENRF",
      null,
      "Assigned",
      "Sponsor"
    ],
    [
      "IG.SU",
      "IT.SU.SUENTPT",
      22,
      "No",
      null,
      null,
      "Timing",
      null,
      null,
      null,
      "SUENTPT",
      "text",
      20,
      null,
      "SUENTPT",
      null,
      null,
      "End Reference Time Point",
      null,
      null,
      "Assigned",
      "Sponsor"
    ],
    [
      "IG.PR",
      "IT.PR.STUDYID",
      1,
      "Yes",
      null,
      null,
      "Identifier",
      null,
      null,
      null,
      "STUDYID",
      "text",
      "__PLACEHOLDER__",
      null,
      "STUDYID",
      null,
      null,
      "Study Identifier",
      null,
      null,
      "__PLACEHOLDER__",
      "__PLACEHOLDER__"
    ],
    [
      "IG.PR",
      "IT.PR.DOMAIN",
      2,
      "Yes",
      null,
      null,
      "Identifier",
      null,
      null,
      null,
      "DOMAIN",
      "text",
      "__PLACEHOLDER__",
      null,
      "DOMAIN",
      null,
      null,
      "Domain Abbreviation",
      null,
      null,
      "__PLACEHOLDER__",
      "__PLACEHOLDER__"
    ],
    [
      "IG.PR",
      "IT.PR.USUBJID",
      3,
      "Yes",
      null,
      null,
      "Identifier",
      null,
      null,
      null,
      "USUBJID",
      "text",
      "__PLACEHOLDER__",
      null,
      "USUBJID",
      null,
      null,
      "Unique Subject Identifier",
      null,
      null,
      "__PLACEHOLDER__",
      "__PLACEHOLDER__"
    ],
    [
      "IG.PR",
      "IT.PR.PRSEQ",
      4,
      "Yes",
      null,
      null,
      "Identifier",
      null,
      null,
      null,
      "PRSEQ",
      "integer",
      "__PLACEHOLDER__",
      null,
      "PRSEQ",
      null,
      null,
      "Sequence Number",
      null,
      null,
      "__PLACEHOLDER__",
      "__PLACEHOLDER__"
    ],
    [
      "IG.PR",
      "IT.PR.PRTRT",
      5,
      "Yes",
      null,
      null,
      "Topic",
      null,
      null,
      null,
      "PRTRT",
      "text",
      200,
      null,
      "PRTRT",
      null,
      null,
      "Reported Name of Procedure",
      null,
      null,
      "Collected",
      "Investigator"
    ],
    [
      "IG.PR",
      "IT.PR.PRDECOD",
      6,
      "No",
      null,
      null,
      "Synonym Qualifier",
      null,
      null,
      null,
      "PRDECOD",
      "text",
      200,
      null,
      "PRDECOD",
      null,
      null,
      "Standardized Procedure Name",
      "CL.PROCEDUR",
      null,
      "Assigned",
      "Sponsor"
    ],
    [
      "IG.PR",
      "IT.PR.PRCAT",
      7,
      "No",
      null,
      null,
      "Grouping Qualifier",
      null,
      null,
      null,
      "PRCAT",
      "text",
      200,
      null,
      "PRCAT",
      null,
      null,
      "Category",
      null,
      null,
      "Assigned",
      "Sponsor"
    ],
    [
      "IG.PR",
      "IT.PR.PRSCAT",
      8,
      "No",
      null,
      null,
      "Grouping Qualifier",
      null,
      null,
      null,
      "PRSCAT",
      "text",
      200,
      null,
      "PRSCAT",
      null,
      null,
      "Subcategory",
      null,
      null,
      "Assigned",
      "Sponsor"
    ],
    [
      "IG.PR",
      "IT.PR.PRPRESP",
      9,
      "No",
      null,
      null,
      "Variable Qualifier",
      null,
      null,
      null,
      "PRPRESP",
      "text",
      1,
      null,
      "PRPRESP",
      null,
      null,
      "Pre-specified",
      "CL.NY",
      null,
      "Assigned",
      "Sponsor"
    ],
    [
      "IG.PR",
      "IT.PR.PROCCUR",
      10,
      "No",
      null,
      null,
      "Record Qualifier",
      null,
      null,
      null,
      "PROCCUR",
      "text",
      1,
      null,
      "PROCCUR",
      null,
      null,
      "Occurrence",
      "CL.NY",
      null,
      "Collected",
      "Investigator"
    ],
    [
      "IG.PR",
      "IT.PR.PRLOC",
      11,
      "No",
      null,
      null,
      "Record Qualifier",
      null,
      null,
      null,
      "PRLOC",
      "text",
      200,
      null,
      "PRLOC",
      null,
      null,
      "Location of Procedure",
      "CL.LOC",
      null,
      "Collected",
      "Investigator"
    ],
    [
      "IG.PR",
      "IT.PR.PRSTDTC",
      12,
      "No",
      null,
      null,
      "Timing",
      null,
      null,
      null,
      "PRSTDTC",
      "datetime",
      null,
      null,
      "PRSTDTC",
      null,
      null,
      "Start Date/Time of Procedure",
      null,
      null,
      "Collected",
      "Investigator"
    ],
    [
      "IG.PR",
      "IT.PR.PRENDTC",
      13,
      "No",
      null,
      null,
      "Timing",
      null,
      null,
      null,
      "PRENDTC",
      "datetime",
      null,
      null,
      "PRENDTC",
      null,
      null,
      "End Date/Time of Procedure",
      null,
      null,
      "Collected",
      "Investigator"
    ],
    [
      "IG.VS",
      "IT.VS.STUDYID",
      1,
      "Yes",
      null,
      null,
      "Identifier",
      null,
      null,
      null,
      "STUDYID",
      "text",
      "__PLACEHOLDER__",
      null,
      "STUDYID",
      null,
      null,
      "Study Identifier",
      null,
      null,
      "__PLACEHOLDER__",
      "__PLACEHOLDER__"
    ],
    [
      "IG.VS",
      "IT.VS.DOMAIN",
      2,
      "Yes",
      null,
      null,
      "Identifier",
      null,
      null,
      null,
      "DOMAIN",
      "text",
      "__PLACEHOLDER__",
      null,
      "DOMAIN",
      null,
      null,
      "Domain Abbreviation",
      null,
      null,
      "__PLACEHOLDER__",
      "__PLACEHOLDER__"
    ],
    [
      "IG.VS",
      "IT.VS.USUBJID",
      3,
      "Yes",
      null,
      null,
      "Identifier",
      null,
      null,
      null,
      "USUBJID",
      "text",
      "__PLACEHOLDER__",
      null,
      "USUBJID",
      null,
      null,
      "Unique Subject Identifier",
      null,
      null,
      "__PLACEHOLDER__",
      "__PLACEHOLDER__"
    ],
    [
      "IG.VS",
      "IT.VS.VSSEQ",
      4,
      "Yes",
      null,
      null,
      "Identifier",
      null,
      null,
      null,
      "VSSEQ",
      "integer",
      "__PLACEHOLDER__",
      null,
      "VSSEQ",
      null,
      null,
      "Sequence Number",
      null,
      null,
      "__PLACEHOLDER__",
      "__PLACEHOLDER__"
    ],
    [
      "IG.VS",
      "IT.VS.VSTESTCD",
      5,
      "Yes",
      null,
      null,
      "Topic",
      null,
      null,
      null,
      "VSTESTCD",
      "text",
      "__PLACEHOLDER__",
      null,
      "VSTESTCD",
      null,
      null,
      "Vital Signs Test Short Name",
      "CL.VSTESTCD",
      null,
      "__PLACEHOLDER__",
      "__PLACEHOLDER__"
    ],
    [
      "IG.VS",
      "IT.VS.VSTEST",
      6,
      "Yes",
      null,
      null,
      "Synonym Qualifier",
      null,
      null,
      null,
      "VSTEST",
      "text",
      "__PLACEHOLDER__",
      null,
      "VSTEST",
      null,
      null,
      "Vital Signs Test Name",
      "CL.VSTEST",
      null,
      "__PLACEHOLDER__",
      "__PLACEHOLDER__"
    ],
    [
      "IG.VS",
      "IT.VS.VSPOS",
      7,
      "No",
      null,
      null,
      "Record Qualifier",
      null,
      null,
      null,
      "VSPOS",
      "text",
      "__PLACEHOLDER__",
      null,
      "VSPOS",
      null,
      null,
      "Vital Signs Position of Subject",
      "CL.POSITION",
      null,
      "__PLACEHOLDER__",
      "__PLACEHOLDER__"
    ],
    [
      "IG.VS",
      "IT.VS.VSORRES",
      8,
      "No",
      null,
      null,
      "Result Qualifier",
      null,
      null,
      null,
      "VSORRES",
      "float",
      8,
      3,
      "VSORRES",
      "8.3",
      null,
      "Result or Finding in Original Units",
      null,
      "VL.VS.VSORRES",
      "Collected",
      "Investigator"
    ],
    [
      "IG.VS",
      "IT.VS.VSORRESU",
      9,
      "No",
      null,
      null,
      "Variable Qualifier",
      null,
      null,
      null,
      "VSORRESU",
      "text",
      "__PLACEHOLDER__",
      null,
      "VSORRESU",
      null,
      null,
      "Original Units",
      "CL.VSRESU",
      "VL.VS.VSORRESU",
      "__PLACEHOLDER__",
      "__PLACEHOLDER__"
    ],
    [
      "IG.VS",
      "IT.VS.VSSTRESC",
      10,
      "No",
      null,
      null,
      "Result Qualifier",
      null,
      null,
      null,
      "VSSTRESC",
      "float",
      8,
      3,
      "VSSTRESC",
      "8.3",
      null,
      "Character Result/Finding in Std Format",
      null,
      null,
      "__PLACEHOLDER__",
      "__PLACEHOLDER__"
    ],
    [
      "IG.VS",
      "IT.VS.VSSTRESN",
      11,
      "No",
      null,
      null,
      "Result Qualifier",
      null,
      null,
      null,
      "VSSTRESN",
      "float",
      8,
      3,
      "VSSTRESN",
      "8.3",
      null,
      "Numeric Result/Finding in Standard Units",
      null,
      null,
      "__PLACEHOLDER__",
      "__PLACEHOLDER__"
    ],
    [
      "IG.VS",
      "IT.VS.VSSTRESU",
      12,
      "No",
      null,
      null,
      "Variable Qualifier",
      null,
      null,
      null,
      "VSSTRESU",
      "text",
      "__PLACEHOLDER__",
      null,
      "VSSTRESU",
      null,
      null,
      "Standard Units",
      "CL.VSRESU",
      null,
      "__PLACEHOLDER__",
      "__PLACEHOLDER__"
    ],
    [
      "IG.VS",
      "IT.VS.VSLOC",
      13,
      "No",
      null,
      null,
      "Record Qualifier",
      null,
      null,
      null,
      "VSLOC",
      "text",
      "__PLACEHOLDER__",
      null,
      "VSLOC",
      null,
      null,
      "Location of Vital Signs Measurement",
      "CL.LOC",
      null,
      "__PLACEHOLDER__",
      "__PLACEHOLDER__"
    ],
    [
      "IG.VS",
      "IT.VS.VSLAT",
      14,
      "No",
      null,
      null,
      "Result Qualifier",
      null,
      null,
      null,
      "VSLAT",
      "text",
      "__PLACEHOLDER__",
      null,
      "VSLAT",
      null,
      null,
      "Laterality",
      "CL.LAT",
      null,
      "__PLACEHOLDER__",
      "__PLACEHOLDER__"
    ],
    [
      "IG.VS",
      "IT.VS.VSLOBXFL",
      15,
      "No",
      null,
      null,
      "Record Qualifier",
      null,
      null,
      null,
      "VSLOBXFL",
      "text",
      "__PLACEHOLDER__",
      null,
      "VSLOBXFL",
      null,
      null,
      "Last Observation Before Exposure Flag",
      "CL.NY",
      null,
      "__PLACEHOLDER__",
      "__PLACEHOLDER__"
    ],
    [
      "IG.VS",
      "IT.VS.VISITNUM",
      16,
      "No",
      null,
      null,
      "Timing",
      null,
      null,
      null,
      "VISITNUM",
      "integer",
      "__PLACEHOLDER__",
      null,
      "VISITNUM",
      null,
      null,
      "Visit Number",
      null,
      null,
      "__PLACEHOLDER__",
      "__PLACEHOLDER__"
    ],
    [
      "IG.VS",
      "IT.VS.VSDTC",
      17,
      "No",
      null,
      null,
      "Timing",
      null,
      null,
      null,
      "VSDTC",
      "datetime",
      null,
      null,
      "VSDTC",
      null,
      null,
      "Date/Time of Measurements",
      null,
      null,
      "__PLACEHOLDER__",
      "__PLACEHOLDER__"
    ],
    [
      "IG.EG",
      "IT.EG.STUDYID",
      1,
      "Yes",
      null,
      null,
      "Identifier",
      null,
      null,
      null,
      "STUDYID",
      "text",
      "__PLACEHOLDER__",
      null,
      "STUDYID",
      null,
      null,
      "Study Identifier",
      null,
      null,
      "__PLACEHOLDER__",
      "__PLACEHOLDER__"
    ],
    [
      "IG.EG",
      "IT.EG.DOMAIN",
      2,
      "Yes",
      null,
      null,
      "Identifier",
      null,
      null,
      null,
      "DOMAIN",
      "text",
      "__PLACEHOLDER__",
      null,
      "DOMAIN",
      null,
      null,
      "Domain Abbreviation",
      null,
      null,
      "__PLACEHOLDER__",
      "__PLACEHOLDER__"
    ],
    [
      "IG.EG",
      "IT.EG.USUBJID",
      3,
      "Yes",
      null,
      null,
      "Identifier",
      null,
      null,
      null,
      "USUBJID",
      "text",
      "__PLACEHOLDER__",
      null,
      "USUBJID",
      null,
      null,
      "Unique Subject Identifier",
      null,
      null,
      "__PLACEHOLDER__",
      "__PLACEHOLDER__"
    ],
    [
      "IG.EG",
      "IT.EG.EGSEQ",
      4,
      "Yes",
      null,
      null,
      "Identifier",
      null,
      null,
      null,
      "EGSEQ",
      "integer",
      "__PLACEHOLDER__",
      null,
      "EGSEQ",
      null,
      null,
      "Sequence Number",
      null,
      null,
      "__PLACEHOLDER__",
      "__PLACEHOLDER__"
    ],
    [
      "IG.EG",
      "IT.EG.EGTESTCD",
      5,
      "Yes",
      null,
      null,
      "Topic",
      null,
      null,
      null,
      "EGTESTCD",
      "text",
      "__PLACEHOLDER__",
      null,
      "EGTESTCD",
      null,
      null,
      "ECG Test or Examination Short Name",
      "CL.EGTESTCD",
      null,
      "__PLACEHOLDER__",
      "__PLACEHOLDER__"
    ],
    [
      "IG.EG",
      "IT.EG.EGTEST",
      6,
      "Yes",
      null,
      null,
      "Synonym Qualifier",
      null,
      null,
      null,
      "EGTEST",
      "text",
      "__PLACEHOLDER__",
      null,
      "EGTEST",
      null,
      null,
      "ECG Test or Examination Name",
      "CL.EGTEST",
      null,
      "__PLACEHOLDER__",
      "__PLACEHOLDER__"
    ],
    [
      "IG.EG",
      "IT.EG.EGCAT",
      7,
      "No",
      null,
      null,
      "Grouping Qualifier",
      null,
      null,
      null,
      "EGCAT",
      "text",
      "__PLACEHOLDER__",
      null,
      "EGCAT",
      null,
      null,
      "Category for ECG",
      null,
      null,
      "__PLACEHOLDER__",
      "__PLACEHOLDER__"
    ],
    [
      "IG.EG",
      "IT.EG.EGPOS",
      8,
      "No",
      null,
      null,
      "Record Qualifier",
      null,
      null,
      null,
      "EGPOS",
      "text",
      "__PLACEHOLDER__",
      null,
      "EGPOS",
      null,
      null,
      "ECG Position of Subject",
      "CL.POSITION",
      null,
      "__PLACEHOLDER__",
      "__PLACEHOLDER__"
    ],
    [
      "IG.EG",
      "IT.EG.EGORRES",
      9,
      "No",
      null,
      null,
      "Result Qualifier",
      null,
      null,
      null,
      "EGORRES",
      "text",
      20,
      null,
      "EGORRES",
      null,
      null,
      "Result or Finding in Original Units",
      null,
      "VL.EG.EGORRES",
      "__PLACEHOLDER__",
      "__PLACEHOLDER__"
    ],
    [
      "IG.EG",
      "IT.EG.EGORRESU",
      10,
      "No",
      null,
      null,
      "Variable Qualifier",
      null,
      null,
      null,
      "EGORRESU",
      "text",
      "__PLACEHOLDER__",
      null,
      "EGORRESU",
      null,
      null,
      "Original Units",
      "CL.UNIT",
      "VL.EG.EGORRESU",
      "__PLACEHOLDER__",
      "__PLACEHOLDER__"
    ],
    [
      "IG.EG",
      "IT.EG.EGSTRESC",
      11,
      "No",
      null,
      null,
      "Result Qualifier",
      null,
      null,
      null,
      "EGSTRESC",
      "text",
      20,
      null,
      "EGSTRESC",
      null,
      null,
      "Character Result/Finding in Std Format",
      "CL.EGSTRESC",
      null,
      "__PLACEHOLDER__",
      "__PLACEHOLDER__"
    ],
    [
      "IG.EG",
      "IT.EG.EGSTRESN",
      12,
      "No",
      null,
      null,
      "Result Qualifier",
      null,
      null,
      null,
      "EGSTRESN",
      "float",
      8,
      3,
      "EGSTRESN",
      "8.3",
      null,
      "Numeric Result/Finding in Standard Units",
      null,
      null,
      "__PLACEHOLDER__",
      "__PLACEHOLDER__"
    ],
    [
      "IG.EG",
      "IT.EG.EGSTRESU",
      13,
      "No",
      null,
      null,
      "Variable Qualifier",
      null,
      null,
      null,
      "EGSTRESU",
      "text",
      "__PLACEHOLDER__",
      null,
      "EGSTRESU",
      null,
      null,
      "Standard Units",
      "CL.UNIT",
      null,
      "__PLACEHOLDER__",
      "__PLACEHOLDER__"
    ],
    [
      "IG.EG",
      "IT.EG.EGMETHOD",
      14,
      "No",
      null,
      null,
      "Record Qualifier",
      null,
      null,
      null,
      "EGMETHOD",
      "text",
      "__PLACEHOLDER__",
      null,
      "EGMETHOD",
      null,
      null,
      "Method of Test or Examination",
      "CL.EGMETHOD",
      null,
      "__PLACEHOLDER__",
      "__PLACEHOLDER__"
    ],
    [
      "IG.EG",
      "IT.EG.EGLOBXFL",
      15,
      "No",
      null,
      null,
      "Record Qualifier",
      null,
      null,
      null,
      "EGLOBXFL",
      "text",
      "__PLACEHOLDER__",
      null,
      "EGLOBXFL",
      null,
      null,
      "Last Observation Before Exposure Flag",
      "CL.NY",
      null,
      "__PLACEHOLDER__",
      "__PLACEHOLDER__"
    ],
    [
      "IG.EG",
      "IT.EG.EGEVAL",
      16,
      "No",
      null,
      null,
      "Record Qualifier",
      null,
      null,
      null,
      "EGEVAL",
      "text",
      "__PLACEHOLDER__",
      null,
      "EGEVAL",
      null,
      null,
      "Evaluator",
      "CL.EVAL",
      null,
      "__PLACEHOLDER__",
      "__PLACEHOLDER__"
    ],
    [
      "IG.EG",
      "IT.EG.EGCLSIG",
      17,
      "No",
      null,
      null,
      "Record Qualifier",
      null,
      null,
      null,
      "EGCLSIG",
      "text",
      "__PLACEHOLDER__",
      null,
      "EGCLSIG",
      null,
      null,
      "Clinically Significant, Collected",
      "CL.NY",
      null,
      "__PLACEHOLDER__",
      "__PLACEHOLDER__"
    ],
    [
      "IG.EG",
      "IT.EG.VISITNUM",
      18,
      "No",
      null,
      null,
      "Timing",
      null,
      null,
      null,
      "VISITNUM",
      "integer",
      "__PLACEHOLDER__",
      null,
      "VISITNUM",
      null,
      null,
      "Visit Number",
      null,
      null,
      "__PLACEHOLDER__",
      "__PLACEHOLDER__"
    ],
    [
      "IG.EG",
      "IT.EG.EGDTC",
      19,
      "No",
      null,
      null,
      "Timing",
      null,
      null,
      null,
      "EGDTC",
      "datetime",
      null,
      null,
      "EGDTC",
      null,
      null,
      "Date/Time of ECG",
      null,
      null,
      "__PLACEHOLDER__",
      "__PLACEHOLDER__"
    ],
    [
      "IG.CM",
      "IT.CM.STUDYID",
      1,
      "Yes",
      null,
      null,
      "Identifier",
      null,
      null,
      null,
      "STUDYID",
      "text",
      "__PLACEHOLDER__",
      null,
      "STUDYID",
      null,
      null,
      "Study Identifier",
      null,
      null,
      "__PLACEHOLDER__",
      "__PLACEHOLDER__"
    ],
    [
      "IG.CM",
      "IT.CM.DOMAIN",
      2,
      "Yes",
      null,
      null,
      "Identifier",
      null,
      null,
      null,
      "DOMAIN",
      "text",
      "__PLACEHOLDER__",
      null,
      "DOMAIN",
      null,
      null,
      "Domain Abbreviation",
      null,
      null,
      "__PLACEHOLDER__",
      "__PLACEHOLDER__"
    ],
    [
      "IG.CM",
      "IT.CM.USUBJID",
      3,
      "Yes",
      null,
      null,
      "Identifier",
      null,
      null,
      null,
      "USUBJID",
      "text",
      "__PLACEHOLDER__",
      null,
      "USUBJID",
      null,
      null,
      "Unique Subject Identifier",
      null,
      null,
      "__PLACEHOLDER__",
      "__PLACEHOLDER__"
    ],
    [
      "IG.CM",
      "IT.CM.CMSEQ",
      4,
      "Yes",
      null,
      null,
      "Identifier",
      null,
      null,
      null,
      "CMSEQ",
      "integer",
      "__PLACEHOLDER__",
      null,
      "CMSEQ",
      null,
      null,
      "Sequence Number",
      null,
      null,
      "__PLACEHOLDER__",
      "__PLACEHOLDER__"
    ],
    [
      "IG.CM",
      "IT.CM.CMTRT",
      5,
      "Yes",
      null,
      null,
      "Topic",
      null,
      null,
      null,
      "CMTRT",
      "text",
      200,
      null,
      "CMTRT",
      null,
      null,
      "Reported Name of Drug, Med, or Therapy",
      null,
      null,
      "Collected",
      "Investigator"
    ],
    [
      "IG.CM",
      "IT.CM.CMDECOD",
      6,
      "No",
      null,
      null,
      "Synonym Qualifier",
      null,
      null,
      null,
      "CMDECOD",
      "text",
      200,
      null,
      "CMDECOD",
      null,
      null,
      "Standardized Medication Name",
      null,
      null,
      "Assigned",
      "Sponsor"
    ],
    [
      "IG.CM",
      "IT.CM.CMCAT",
      7,
      "No",
      null,
      null,
      "Grouping Qualifier",
      null,
      null,
      null,
      "CMCAT",
      "text",
      200,
      null,
      "CMCAT",
      null,
      null,
      "Category for Medication",
      null,
      null,
      "Assigned",
      "Sponsor"
    ],
    [
      "IG.CM",
      "IT.CM.CMSCAT",
      8,
      "No",
      null,
      null,
      "Grouping Qualifier",
      null,
      null,
      null,
      "CMSCAT",
      "text",
      200,
      null,
      "CMSCAT",
      null,
      null,
      "Subcategory for Medication",
      null,
      null,
      "Assigned",
      "Sponsor"
    ],
    [
      "IG.CM",
      "IT.CM.CMPRESP",
      9,
      "No",
      null,
      null,
      "Variable Qualifier",
      null,
      null,
      null,
      "CMPRESP",
      "text",
      1,
      null,
      "CMPRESP",
      null,
      null,
      "CM Pre-specified",
      "CL.NY",
      null,
      "Assigned",
      "Sponsor"
    ],
    [
      "IG.CM",
      "IT.CM.CMOCCUR",
      10,
      "No",
      null,
      null,
      "Record Qualifier",
      null,
      null,
      null,
      "CMOCCUR",
      "text",
      1,
      null,
      "CMOCCUR",
      null,
      null,
      "CM Occurrence",
      "CL.NY",
      null,
      "Collected",
      "Investigator"
    ],
    [
      "IG.CM",
      "IT.CM.CMINDC",
      11,
      "No",
      null,
      null,
      "Record Qualifier",
      null,
      null,
      null,
      "CMINDC",
      "text",
      200,
      null,
      "CMINDC",
      null,
      null,
      "Indication",
      null,
      null,
      "Collected",
      "Investigator"
    ],
    [
      "IG.CM",
      "IT.CM.CMDOSE",
      12,
      "No",
      null,
      null,
      "Record Qualifier",
      null,
      null,
      null,
      "CMDOSE",
      "text",
      40,
      null,
      "CMDOSE",
      null,
      null,
      "Dose per Administration",
      null,
      null,
      "Collected",
      "Investigator"
    ],
    [
      "IG.CM",
      "IT.CM.CMDOSU",
      13,
      "No",
      null,
      null,
      "Variable Qualifier",
      null,
      null,
      null,
      "CMDOSU",
      "text",
      40,
      null,
      "CMDOSU",
      null,
      null,
      "Dose Units",
      "CL.UNIT",
      null,
      "Collected",
      "Investigator"
    ],
    [
      "IG.CM",
      "IT.CM.CMDOSFRM",
      14,
      "No",
      null,
      null,
      "Variable Qualifier",
      null,
      null,
      null,
      "CMDOSFRM",
      "text",
      40,
      null,
      "CMDOSFRM",
      null,
      null,
      "Dose Form",
      "CL.FRM",
      null,
      "Collected",
      "Investigator"
    ],
    [
      "IG.CM",
      "IT.CM.CMROUTE",
      15,
      "No",
      null,
      null,
      "Variable Qualifier",
      null,
      null,
      null,
      "CMROUTE",
      "text",
      200,
      null,
      "CMROUTE",
      null,
      null,
      "Route of Administration",
      "CL.ROUTE",
      null,
      "Collected",
      "Investigator"
    ],
    [
      "IG.CM",
      "IT.CM.CMSTDTC",
      16,
      "No",
      null,
      null,
      "Timing",
      null,
      null,
      null,
      "CMSTDTC",
      "datetime",
      null,
      null,
      "CMSTDTC",
      null,
      null,
      "Start Date/Time of Medication",
      null,
      null,
      "Collected",
      "Investigator"
    ],
    [
      "IG.CM",
      "IT.CM.CMENDTC",
      17,
      "No",
      null,
      null,
      "Timing",
      null,
      null,
      null,
      "CMENDTC",
      "datetime",
      null,
      null,
      "CMENDTC",
      null,
      null,
      "End Date/Time of Medication",
      null,
      null,
      "Collected",
      "Investigator"
    ],
    [
      "IG.LB",
      "IT.LB.STUDYID",
      1,
      "Yes",
      null,
      null,
      "Identifier",
      null,
      null,
      null,
      "STUDYID",
      "text",
      "__PLACEHOLDER__",
      null,
      "STUDYID",
      null,
      null,
      "Study Identifier",
      null,
      null,
      "__PLACEHOLDER__",
      "__PLACEHOLDER__"
    ],
    [
      "IG.LB",
      "IT.LB.DOMAIN",
      2,
      "Yes",
      null,
      null,
      "Identifier",
      null,
      null,
      null,
      "DOMAIN",
      "text",
      "__PLACEHOLDER__",
      null,
      "DOMAIN",
      null,
      null,
      "Domain Abbreviation",
      null,
      null,
      "__PLACEHOLDER__",
      "__PLACEHOLDER__"
    ],
    [
      "IG.LB",
      "IT.LB.USUBJID",
      3,
      "Yes",
      null,
      null,
      "Identifier",
      null,
      null,
      null,
      "USUBJID",
      "text",
      "__PLACEHOLDER__",
      null,
      "USUBJID",
      null,
      null,
      "Unique Subject Identifier",
      null,
      null,
      "__PLACEHOLDER__",
      "__PLACEHOLDER__"
    ],
    [
      "IG.LB",
      "IT.LB.LBSEQ",
      4,
      "Yes",
      null,
      null,
      "Identifier",
      null,
      null,
      null,
      "LBSEQ",
      "integer",
      "__PLACEHOLDER__",
      null,
      "LBSEQ",
      null,
      null,
      "Sequence Number",
      null,
      null,
      "__PLACEHOLDER__",
      "__PLACEHOLDER__"
    ],
    [
      "IG.LB",
      "IT.LB.LBTESTCD",
      5,
      "Yes",
      null,
      null,
      "Topic",
      null,
      null,
      null,
      "LBTESTCD",
      "text",
      "__PLACEHOLDER__",
      null,
      "LBTESTCD",
      null,
      null,
      "Lab Test or Examination Short Name",
      "CL.LBTESTCD",
      null,
      "__PLACEHOLDER__",
      "__PLACEHOLDER__"
    ],
    [
      "IG.LB",
      "IT.LB.LBTEST",
      6,
      "Yes",
      null,
      null,
      "Synonym Qualifier",
      null,
      null,
      null,
      "LBTEST",
      "text",
      "__PLACEHOLDER__",
      null,
      "LBTEST",
      null,
      null,
      "Lab Test or Examination Name",
      "CL.LBTEST",
      null,
      "__PLACEHOLDER__",
      "__PLACEHOLDER__"
    ],
    [
      "IG.LB",
      "IT.LB.LBCAT",
      7,
      "No",
      null,
      null,
      "Grouping Qualifier",
      null,
      null,
      null,
      "LBCAT",
      "text",
      "__PLACEHOLDER__",
      null,
      "LBCAT",
      null,
      null,
      "Category for Lab Test",
      null,
      null,
      "__PLACEHOLDER__",
      "__PLACEHOLDER__"
    ],
    [
      "IG.LB",
      "IT.LB.LBORRES",
      8,
      "No",
      null,
      null,
      "Result Qualifier",
      null,
      null,
      null,
      "LBORRES",
      "float",
      12,
      4,
      "LBORRES",
      "12.4",
      null,
      "Result or Finding in Original Units",
      null,
      "VL.LB.LBORRES",
      "Collected",
      "Vendor"
    ],
    [
      "IG.LB",
      "IT.LB.LBORRESU",
      9,
      "No",
      null,
      null,
      "Variable Qualifier",
      null,
      null,
      null,
      "LBORRESU",
      "text",
      "__PLACEHOLDER__",
      null,
      "LBORRESU",
      null,
      null,
      "Original Units",
      "CL.UNIT",
      "VL.LB.LBORRESU",
      "__PLACEHOLDER__",
      "__PLACEHOLDER__"
    ],
    [
      "IG.LB",
      "IT.LB.LBORNRLO",
      10,
      "No",
      null,
      null,
      "Variable Qualifier",
      null,
      null,
      null,
      "LBORNRLO",
      "text",
      "__PLACEHOLDER__",
      null,
      "LBORNRLO",
      null,
      null,
      "Reference Range Lower Limit in Orig Unit",
      null,
      null,
      "__PLACEHOLDER__",
      "__PLACEHOLDER__"
    ],
    [
      "IG.LB",
      "IT.LB.LBORNRHI",
      11,
      "No",
      null,
      null,
      "Variable Qualifier",
      null,
      null,
      null,
      "LBORNRHI",
      "text",
      "__PLACEHOLDER__",
      null,
      "LBORNRHI",
      null,
      null,
      "Reference Range Upper Limit in Orig Unit",
      null,
      null,
      "__PLACEHOLDER__",
      "__PLACEHOLDER__"
    ],
    [
      "IG.LB",
      "IT.LB.LBSTRESC",
      12,
      "No",
      null,
      null,
      "Result Qualifier",
      null,
      null,
      null,
      "LBSTRESC",
      "float",
      12,
      4,
      "LBSTRESC",
      "12.4",
      null,
      "Character Result/Finding in Std Format",
      "CL.LBSTRESC",
      null,
      "Collected",
      "Vendor"
    ],
    [
      "IG.LB",
      "IT.LB.LBSTRESN",
      13,
      "No",
      null,
      null,
      "Result Qualifier",
      null,
      null,
      null,
      "LBSTRESN",
      "float",
      12,
      4,
      "LBSTRESN",
      "12.4",
      null,
      "Numeric Result/Finding in Standard Units",
      null,
      null,
      "Collected",
      "Vendor"
    ],
    [
      "IG.LB",
      "IT.LB.LBSTRESU",
      14,
      "No",
      null,
      null,
      "Variable Qualifier",
      null,
      null,
      null,
      "LBSTRESU",
      "text",
      "__PLACEHOLDER__",
      null,
      "LBSTRESU",
      null,
      null,
      "Standard Units",
      "CL.UNIT",
      null,
      "__PLACEHOLDER__",
      "__PLACEHOLDER__"
    ],
    [
      "IG.LB",
      "IT.LB.LBSTNRLO",
      15,
      "No",
      null,
      null,
      "Variable Qualifier",
      null,
      null,
      null,
      "LBSTNRLO",
      "integer",
      "__PLACEHOLDER__",
      null,
      "LBSTNRLO",
      null,
      null,
      "Reference Range Lower Limit-Std Units",
      null,
      null,
      "__PLACEHOLDER__",
      "__PLACEHOLDER__"
    ],
    [
      "IG.LB",
      "IT.LB.LBSTNRHI",
      16,
      "No",
      null,
      null,
      "Variable Qualifier",
      null,
      null,
      null,
      "LBSTNRHI",
      "integer",
      "__PLACEHOLDER__",
      null,
      "LBSTNRHI",
      null,
      null,
      "Reference Range Upper Limit-Std Units",
      null,
      null,
      "__PLACEHOLDER__",
      "__PLACEHOLDER__"
    ],
    [
      "IG.LB",
      "IT.LB.LBNRIND",
      17,
      "No",
      null,
      null,
      "Variable Qualifier",
      null,
      null,
      null,
      "LBNRIND",
      "text",
      "__PLACEHOLDER__",
      null,
      "LBNRIND",
      null,
      null,
      "Reference Range Indicator",
      "CL.NRIND",
      null,
      "__PLACEHOLDER__",
      "__PLACEHOLDER__"
    ],
    [
      "IG.LB",
      "IT.LB.LBSPEC",
      18,
      "No",
      null,
      null,
      "Record Qualifier",
      null,
      null,
      null,
      "LBSPEC",
      "text",
      "__PLACEHOLDER__",
      null,
      "LBSPEC",
      null,
      null,
      "Specimen Type",
      "CL.SPECTYPE",
      null,
      "__PLACEHOLDER__",
      "__PLACEHOLDER__"
    ],
    [
      "IG.LB",
      "IT.LB.LBMETHOD",
      19,
      "No",
      null,
      null,
      "Record Qualifier",
      null,
      null,
      null,
      "LBMETHOD",
      "text",
      "__PLACEHOLDER__",
      null,
      "LBMETHOD",
      null,
      null,
      "Method of Test or Examination",
      "CL.METHOD",
      null,
      "__PLACEHOLDER__",
      "__PLACEHOLDER__"
    ],
    [
      "IG.LB",
      "IT.LB.LBLOBXFL",
      20,
      "No",
      null,
      null,
      "Record Qualifier",
      null,
      null,
      null,
      "LBLOBXFL",
      "text",
      "__PLACEHOLDER__",
      null,
      "LBLOBXFL",
      null,
      null,
      "Last Observation Before Exposure Flag",
      "CL.NY",
      null,
      "__PLACEHOLDER__",
      "__PLACEHOLDER__"
    ],
    [
      "IG.LB",
      "IT.LB.LBFAST",
      21,
      "No",
      null,
      null,
      "Record Qualifier",
      null,
      null,
      null,
      "LBFAST",
      "text",
      "__PLACEHOLDER__",
      null,
      "LBFAST",
      null,
      null,
      "Fasting Status",
      "CL.NY",
      null,
      "__PLACEHOLDER__",
      "__PLACEHOLDER__"
    ],
    [
      "IG.LB",
      "IT.LB.VISITNUM",
      22,
      "No",
      null,
      null,
      "Timing",
      null,
      null,
      null,
      "VISITNUM",
      "integer",
      "__PLACEHOLDER__",
      null,
      "VISITNUM",
      null,
      null,
      "Visit Number",
      null,
      null,
      "__PLACEHOLDER__",
      "__PLACEHOLDER__"
    ],
    [
      "IG.LB",
      "IT.LB.LBDTC",
      23,
      "No",
      null,
      null,
      "Timing",
      null,
      null,
      null,
      "LBDTC",
      "datetime",
      null,
      null,
      "LBDTC",
      null,
      null,
      "Date/Time of Specimen Collection",
      null,
      null,
      "__PLACEHOLDER__",
      "__PLACEHOLDER__"
    ],
    [
      "IG.MB",
      "IT.MB.STUDYID",
      1,
      "Yes",
      null,
      null,
      "Identifier",
      null,
      null,
      null,
      "STUDYID",
      "text",
      "__PLACEHOLDER__",
      null,
      "STUDYID",
      null,
      null,
      "Study Identifier",
      null,
      null,
      "__PLACEHOLDER__",
      "__PLACEHOLDER__"
    ],
    [
      "IG.MB",
      "IT.MB.DOMAIN",
      2,
      "Yes",
      null,
      null,
      "Identifier",
      null,
      null,
      null,
      "DOMAIN",
      "text",
      "__PLACEHOLDER__",
      null,
      "DOMAIN",
      null,
      null,
      "Domain Abbreviation",
      null,
      null,
      "__PLACEHOLDER__",
      "__PLACEHOLDER__"
    ],
    [
      "IG.MB",
      "IT.MB.USUBJID",
      3,
      "Yes",
      null,
      null,
      "Identifier",
      null,
      null,
      null,
      "USUBJID",
      "text",
      "__PLACEHOLDER__",
      null,
      "USUBJID",
      null,
      null,
      "Unique Subject Identifier",
      null,
      null,
      "__PLACEHOLDER__",
      "__PLACEHOLDER__"
    ],
    [
      "IG.MB",
      "IT.MB.MBSEQ",
      4,
      "Yes",
      null,
      null,
      "Identifier",
      null,
      null,
      null,
      "MBSEQ",
      "integer",
      "__PLACEHOLDER__",
      null,
      "MBSEQ",
      null,
      null,
      "Sequence Number",
      null,
      null,
      "__PLACEHOLDER__",
      "__PLACEHOLDER__"
    ],
    [
      "IG.MB",
      "IT.MB.MBTESTCD",
      5,
      "Yes",
      null,
      null,
      "Topic",
      null,
      null,
      null,
      "MBTESTCD",
      "text",
      "__PLACEHOLDER__",
      null,
      "MBTESTCD",
      null,
      null,
      "Microbiology Test or Finding Short Name",
      "CL.MBTESTCD",
      null,
      "__PLACEHOLDER__",
      "__PLACEHOLDER__"
    ],
    [
      "IG.MB",
      "IT.MB.MBTEST",
      6,
      "Yes",
      null,
      null,
      "Synonym Qualifier",
      null,
      null,
      null,
      "MBTEST",
      "text",
      "__PLACEHOLDER__",
      null,
      "MBTEST",
      null,
      null,
      "Microbiology Test or Finding Name",
      "CL.MBTEST",
      null,
      "__PLACEHOLDER__",
      "__PLACEHOLDER__"
    ],
    [
      "IG.MB",
      "IT.MB.MBTSTDTL",
      7,
      "No",
      null,
      null,
      "Variable Qualifier",
      null,
      null,
      null,
      "MBTSTDTL",
      "text",
      "__PLACEHOLDER__",
      null,
      "MBTSTDTL",
      null,
      null,
      "Measurement, Test or Examination Detail",
      "CL.MBFTSDTL",
      null,
      "__PLACEHOLDER__",
      "__PLACEHOLDER__"
    ],
    [
      "IG.MB",
      "IT.MB.MBORRES",
      8,
      "No",
      null,
      null,
      "Result Qualifier",
      null,
      null,
      null,
      "MBORRES",
      "text",
      20,
      null,
      "MBORRES",
      null,
      null,
      "Result or Finding in Original Units",
      null,
      "VL.MB.MBORRES",
      "__PLACEHOLDER__",
      "__PLACEHOLDER__"
    ],
    [
      "IG.MB",
      "IT.MB.MBSTRESC",
      9,
      "No",
      null,
      null,
      "Result Qualifier",
      null,
      null,
      null,
      "MBSTRESC",
      "text",
      20,
      null,
      "MBSTRESC",
      null,
      null,
      "Result or Finding in Standard Format",
      null,
      null,
      "__PLACEHOLDER__",
      "__PLACEHOLDER__"
    ],
    [
      "IG.MB",
      "IT.MB.MBSPEC",
      10,
      "No",
      null,
      null,
      "Record Qualifier",
      null,
      null,
      null,
      "MBSPEC",
      "text",
      "__PLACEHOLDER__",
      null,
      "MBSPEC",
      null,
      null,
      "Specimen Material Type",
      "CL.SPECTYPE",
      null,
      "__PLACEHOLDER__",
      "__PLACEHOLDER__"
    ],
    [
      "IG.MB",
      "IT.MB.MBMETHOD",
      11,
      "No",
      null,
      null,
      "Record Qualifier",
      null,
      null,
      null,
      "MBMETHOD",
      "text",
      "__PLACEHOLDER__",
      null,
      "MBMETHOD",
      null,
      null,
      "Method of Test or Examination",
      "CL.METHOD",
      null,
      "__PLACEHOLDER__",
      "__PLACEHOLDER__"
    ],
    [
      "IG.MB",
      "IT.MB.VISITNUM",
      12,
      "No",
      null,
      null,
      "Timing",
      null,
      null,
      null,
      "VISITNUM",
      "integer",
      "__PLACEHOLDER__",
      null,
      "VISITNUM",
      null,
      null,
      "Visit Number",
      null,
      null,
      "__PLACEHOLDER__",
      "__PLACEHOLDER__"
    ],
    [
      "IG.MB",
      "IT.MB.MBDTC",
      13,
      "No",
      null,
      null,
      "Timing",
      null,
      null,
      null,
      "MBDTC",
      "datetime",
      null,
      null,
      "MBDTC",
      null,
      null,
      "Date/Time of Collection",
      null,
      null,
      "__PLACEHOLDER__",
      "__PLACEHOLDER__"
    ],
    [
      "IG.EC",
      "IT.EC.STUDYID",
      1,
      "Yes",
      null,
      null,
      "Identifier",
      null,
      null,
      null,
      "STUDYID",
      "text",
      "__PLACEHOLDER__",
      null,
      "STUDYID",
      null,
      null,
      "Study Identifier",
      null,
      null,
      "__PLACEHOLDER__",
      "__PLACEHOLDER__"
    ],
    [
      "IG.EC",
      "IT.EC.DOMAIN",
      2,
      "Yes",
      null,
      null,
      "Identifier",
      null,
      null,
      null,
      "DOMAIN",
      "text",
      "__PLACEHOLDER__",
      null,
      "DOMAIN",
      null,
      null,
      "Domain Abbreviation",
      null,
      null,
      "__PLACEHOLDER__",
      "__PLACEHOLDER__"
    ],
    [
      "IG.EC",
      "IT.EC.USUBJID",
      3,
      "Yes",
      null,
      null,
      "Identifier",
      null,
      null,
      null,
      "USUBJID",
      "text",
      "__PLACEHOLDER__",
      null,
      "USUBJID",
      null,
      null,
      "Unique Subject Identifier",
      null,
      null,
      "__PLACEHOLDER__",
      "__PLACEHOLDER__"
    ],
    [
      "IG.EC",
      "IT.EC.ECSEQ",
      4,
      "Yes",
      null,
      null,
      "Identifier",
      null,
      null,
      null,
      "ECSEQ",
      "integer",
      "__PLACEHOLDER__",
      null,
      "ECSEQ",
      null,
      null,
      "Sequence Number",
      null,
      null,
      "__PLACEHOLDER__",
      "__PLACEHOLDER__"
    ],
    [
      "IG.EC",
      "IT.EC.ECREFID",
      5,
      "No",
      null,
      null,
      "Identifier",
      null,
      null,
      null,
      "ECREFID",
      "text",
      "__PLACEHOLDER__",
      null,
      "ECREFID",
      null,
      null,
      "Reference ID",
      null,
      null,
      "Collected",
      "Investigator"
    ],
    [
      "IG.EC",
      "IT.EC.ECTRT",
      6,
      "Yes",
      null,
      null,
      "Topic",
      null,
      null,
      null,
      "ECTRT",
      "text",
      200,
      null,
      "ECTRT",
      null,
      null,
      "Name of Treatment",
      null,
      null,
      "Collected",
      "Investigator"
    ],
    [
      "IG.EC",
      "IT.EC.ECDOSE",
      7,
      "No",
      null,
      null,
      "Record Qualifier",
      null,
      null,
      null,
      "ECDOSE",
      "integer",
      20,
      null,
      "ECDOSE",
      null,
      null,
      "Dose",
      null,
      null,
      "Collected",
      "Investigator"
    ],
    [
      "IG.EC",
      "IT.EC.ECDOSTXT",
      8,
      "No",
      null,
      null,
      "Record Qualifier",
      null,
      null,
      null,
      "ECDOSTXT",
      "text",
      100,
      null,
      "ECDOSTXT",
      null,
      null,
      "Dose Description",
      null,
      null,
      "Collected",
      "Investigator"
    ],
    [
      "IG.EC",
      "IT.EC.ECDOSU",
      9,
      "No",
      null,
      null,
      "Variable Qualifier",
      null,
      null,
      null,
      "ECDOSU",
      "text",
      200,
      null,
      "ECDOSU",
      null,
      null,
      "Dose Units",
      "CL.UNIT",
      null,
      "Collected",
      "Investigator"
    ],
    [
      "IG.EC",
      "IT.EC.ECDOSFRM",
      10,
      "No",
      null,
      null,
      "Variable Qualifier",
      null,
      null,
      null,
      "ECDOSFRM",
      "text",
      200,
      null,
      "ECDOSFRM",
      null,
      null,
      "Dose Form",
      "CL.FRM",
      null,
      "Collected",
      "Investigator"
    ],
    [
      "IG.EC",
      "IT.EC.ECDOSFRQ",
      11,
      "No",
      null,
      null,
      "Record Qualifier",
      null,
      null,
      null,
      "ECDOSFRQ",
      "text",
      200,
      null,
      "ECDOSFRQ",
      null,
      null,
      "Dosing Frequency per Interval",
      "CL.FREQ",
      null,
      "Collected",
      "Investigator"
    ],
    [
      "IG.EC",
      "IT.EC.ECDOSRGM",
      12,
      "No",
      null,
      null,
      "Record Qualifier",
      null,
      null,
      null,
      "ECDOSRGM",
      "text",
      "__PLACEHOLDER__",
      null,
      "ECDOSRGM",
      null,
      null,
      "Intended Dose Regimen",
      null,
      null,
      "Collected",
      "Investigator"
    ],
    [
      "IG.EC",
      "IT.EC.ECROUTE",
      13,
      "No",
      null,
      null,
      "Variable Qualifier",
      null,
      null,
      null,
      "ECROUTE",
      "text",
      200,
      null,
      "ECROUTE",
      null,
      null,
      "Route of Administration",
      "CL.ROUTE",
      null,
      "Collected",
      "Investigator"
    ],
    [
      "IG.EC",
      "IT.EC.ECLOC",
      14,
      "No",
      null,
      null,
      "Record Qualifier",
      null,
      null,
      null,
      "ECLOC",
      "text",
      200,
      null,
      "ECLOC",
      null,
      null,
      "Location of Dose Administration",
      "CL.LOC",
      null,
      "Collected",
      "Investigator"
    ],
    [
      "IG.EC",
      "IT.EC.ECLAT",
      15,
      "No",
      null,
      null,
      "Variable Qualifier",
      null,
      null,
      null,
      "ECLAT",
      "text",
      200,
      null,
      "ECLAT",
      null,
      null,
      "Laterality",
      "CL.LAT",
      null,
      "Collected",
      "Investigator"
    ],
    [
      "IG.EC",
      "IT.EC.ECDIR",
      16,
      "No",
      null,
      null,
      "Variable Qualifier",
      null,
      null,
      null,
      "ECDIR",
      "text",
      "__PLACEHOLDER__",
      null,
      "ECDIR",
      null,
      null,
      "Directionality",
      "CL.DIR",
      null,
      "Collected",
      "Investigator"
    ],
    [
      "IG.EC",
      "IT.EC.ECSTDTC",
      17,
      "No",
      null,
      null,
      "Timing",
      null,
      null,
      null,
      "ECSTDTC",
      "datetime",
      null,
      null,
      "ECSTDTC",
      null,
      null,
      "Start Date/Time of Treatment",
      null,
      null,
      "__PLACEHOLDER__",
      "__PLACEHOLDER__"
    ],
    [
      "IG.EC",
      "IT.EC.ECENDTC",
      18,
      "No",
      null,
      null,
      "Timing",
      null,
      null,
      null,
      "ECENDTC",
      "datetime",
      null,
      null,
      "ECENDTC",
      null,
      null,
      "End Date/Time of Treatment",
      null,
      null,
      "__PLACEHOLDER__",
      "__PLACEHOLDER__"
    ],
    [
      "IG.AE",
      "IT.AE.STUDYID",
      1,
      "Yes",
      null,
      null,
      "Identifier",
      null,
      null,
      null,
      "STUDYID",
      "text",
      "__PLACEHOLDER__",
      null,
      "STUDYID",
      null,
      null,
      "Study Identifier",
      null,
      null,
      "__PLACEHOLDER__",
      "__PLACEHOLDER__"
    ],
    [
      "IG.AE",
      "IT.AE.DOMAIN",
      2,
      "Yes",
      null,
      null,
      "Identifier",
      null,
      null,
      null,
      "DOMAIN",
      "text",
      "__PLACEHOLDER__",
      null,
      "DOMAIN",
      null,
      null,
      "Domain Abbreviation",
      null,
      null,
      "__PLACEHOLDER__",
      "__PLACEHOLDER__"
    ],
    [
      "IG.AE",
      "IT.AE.USUBJID",
      3,
      "Yes",
      null,
      null,
      "Identifier",
      null,
      null,
      null,
      "USUBJID",
      "text",
      "__PLACEHOLDER__",
      null,
      "USUBJID",
      null,
      null,
      "Unique Subject Identifier",
      null,
      null,
      "__PLACEHOLDER__",
      "__PLACEHOLDER__"
    ],
    [
      "IG.AE",
      "IT.AE.AESEQ",
      4,
      "Yes",
      null,
      null,
      "Identifier",
      null,
      null,
      null,
      "AESEQ",
      "integer",
      "__PLACEHOLDER__",
      null,
      "AESEQ",
      null,
      null,
      "Sequence Number",
      null,
      null,
      "__PLACEHOLDER__",
      "__PLACEHOLDER__"
    ],
    [
      "IG.AE",
      "IT.AE.AETERM",
      5,
      "Yes",
      null,
      null,
      "Topic",
      null,
      null,
      null,
      "AETERM",
      "text",
      200,
      null,
      "AETERM",
      null,
      null,
      "Reported Term for the Adverse Event",
      null,
      null,
      "Collected",
      "Investigator"
    ],
    [
      "IG.AE",
      "IT.AE.AELLT",
      6,
      "No",
      null,
      null,
      "Variable Qualifier",
      null,
      null,
      null,
      "AELLT",
      "text",
      "__PLACEHOLDER__",
      null,
      "AELLT",
      null,
      null,
      "Lowest Level Term",
      null,
      null,
      "__PLACEHOLDER__",
      "__PLACEHOLDER__"
    ],
    [
      "IG.AE",
      "IT.AE.AELLTCD",
      7,
      "No",
      null,
      null,
      "Variable Qualifier",
      null,
      null,
      null,
      "AELLTCD",
      "integer",
      "__PLACEHOLDER__",
      null,
      "AELLTCD",
      null,
      null,
      "Lowest Level Term Code",
      null,
      null,
      "__PLACEHOLDER__",
      "__PLACEHOLDER__"
    ],
    [
      "IG.AE",
      "IT.AE.AEDECOD",
      8,
      "Yes",
      null,
      null,
      "Synonym Qualifier",
      null,
      null,
      null,
      "AEDECOD",
      "text",
      200,
      null,
      "AEDECOD",
      null,
      null,
      "Dictionary-Derived Term",
      null,
      null,
      "Assigned",
      "Sponsor"
    ],
    [
      "IG.AE",
      "IT.AE.AEPTCD",
      9,
      "No",
      null,
      null,
      "Variable Qualifier",
      null,
      null,
      null,
      "AEPTCD",
      "integer",
      "__PLACEHOLDER__",
      null,
      "AEPTCD",
      null,
      null,
      "Preferred Term Code",
      null,
      null,
      "__PLACEHOLDER__",
      "__PLACEHOLDER__"
    ],
    [
      "IG.AE",
      "IT.AE.AEHLT",
      10,
      "No",
      null,
      null,
      "Variable Qualifier",
      null,
      null,
      null,
      "AEHLT",
      "text",
      "__PLACEHOLDER__",
      null,
      "AEHLT",
      null,
      null,
      "High Level Term",
      null,
      null,
      "__PLACEHOLDER__",
      "__PLACEHOLDER__"
    ],
    [
      "IG.AE",
      "IT.AE.AEHLTCD",
      11,
      "No",
      null,
      null,
      "Variable Qualifier",
      null,
      null,
      null,
      "AEHLTCD",
      "integer",
      "__PLACEHOLDER__",
      null,
      "AEHLTCD",
      null,
      null,
      "High Level Term Code",
      null,
      null,
      "__PLACEHOLDER__",
      "__PLACEHOLDER__"
    ],
    [
      "IG.AE",
      "IT.AE.AEHLGT",
      12,
      "No",
      null,
      null,
      "Variable Qualifier",
      null,
      null,
      null,
      "AEHLGT",
      "text",
      "__PLACEHOLDER__",
      null,
      "AEHLGT",
      null,
      null,
      "High Level Group Term",
      null,
      null,
      "__PLACEHOLDER__",
      "__PLACEHOLDER__"
    ],
    [
      "IG.AE",
      "IT.AE.AEHLGTCD",
      13,
      "No",
      null,
      null,
      "Variable Qualifier",
      null,
      null,
      null,
      "AEHLGTCD",
      "integer",
      "__PLACEHOLDER__",
      null,
      "AEHLGTCD",
      null,
      null,
      "High Level Group Term Code",
      null,
      null,
      "__PLACEHOLDER__",
      "__PLACEHOLDER__"
    ],
    [
      "IG.AE",
      "IT.AE.AECAT",
      14,
      "No",
      null,
      null,
      "Grouping Qualifier",
      null,
      null,
      null,
      "AECAT",
      "text",
      200,
      null,
      "AECAT",
      null,
      null,
      "Category for Adverse Event",
      null,
      null,
      "Assigned",
      "Sponsor"
    ],
    [
      "IG.AE",
      "IT.AE.AESCAT",
      15,
      "No",
      null,
      null,
      "Grouping Qualifier",
      null,
      null,
      null,
      "AESCAT",
      "text",
      200,
      null,
      "AESCAT",
      null,
      null,
      "Subcategory for Adverse Event",
      null,
      null,
      "Assigned",
      "Sponsor"
    ],
    [
      "IG.AE",
      "IT.AE.AEPRESP",
      16,
      "No",
      null,
      null,
      "Variable Qualifier",
      null,
      null,
      null,
      "AEPRESP",
      "text",
      1,
      null,
      "AEPRESP",
      null,
      null,
      "Pre-Specified Adverse Event",
      "CL.NY",
      null,
      "Assigned",
      "Sponsor"
    ],
    [
      "IG.AE",
      "IT.AE.AEBODSYS",
      17,
      "No",
      null,
      null,
      "Record Qualifier",
      null,
      null,
      null,
      "AEBODSYS",
      "text",
      "__PLACEHOLDER__",
      null,
      "AEBODSYS",
      null,
      null,
      "Body System or Organ Class",
      null,
      null,
      "__PLACEHOLDER__",
      "__PLACEHOLDER__"
    ],
    [
      "IG.AE",
      "IT.AE.AEBDSYCD",
      18,
      "No",
      null,
      null,
      "Variable Qualifier",
      null,
      null,
      null,
      "AEBDSYCD",
      "integer",
      "__PLACEHOLDER__",
      null,
      "AEBDSYCD",
      null,
      null,
      "Body System or Organ Class Code",
      null,
      null,
      "__PLACEHOLDER__",
      "__PLACEHOLDER__"
    ],
    [
      "IG.AE",
      "IT.AE.AESOC",
      19,
      "No",
      null,
      null,
      "Variable Qualifier",
      null,
      null,
      null,
      "AESOC",
      "text",
      "__PLACEHOLDER__",
      null,
      "AESOC",
      null,
      null,
      "Primary System Organ Class",
      null,
      null,
      "__PLACEHOLDER__",
      "__PLACEHOLDER__"
    ],
    [
      "IG.AE",
      "IT.AE.AESOCCD",
      20,
      "No",
      null,
      null,
      "Variable Qualifier",
      null,
      null,
      null,
      "AESOCCD",
      "integer",
      "__PLACEHOLDER__",
      null,
      "AESOCCD",
      null,
      null,
      "Primary System Organ Class Code",
      null,
      null,
      "__PLACEHOLDER__",
      "__PLACEHOLDER__"
    ],
    [
      "IG.AE",
      "IT.AE.AELOC",
      21,
      "No",
      null,
      null,
      "Record Qualifier",
      null,
      null,
      null,
      "AELOC",
      "text",
      200,
      null,
      "AELOC",
      null,
      null,
      "Location of Event",
      "CL.LOC",
      null,
      "Collected",
      "Investigator"
    ],
    [
      "IG.AE",
      "IT.AE.AESEV",
      22,
      "No",
      null,
      null,
      "Record Qualifier",
      null,
      null,
      null,
      "AESEV",
      "text",
      20,
      null,
      "AESEV",
      null,
      null,
      "Severity/Intensity",
      "CL.AESEV",
      null,
      "Collected",
      "Investigator"
    ],
    [
      "IG.AE",
      "IT.AE.AESER",
      23,
      "No",
      null,
      null,
      "Record Qualifier",
      null,
      null,
      null,
      "AESER",
      "text",
      1,
      null,
      "AESER",
      null,
      null,
      "Serious Event",
      "CL.NY",
      null,
      "Collected",
      "Investigator"
    ],
    [
      "IG.AE",
      "IT.AE.AEACN",
      24,
      "No",
      null,
      null,
      "Record Qualifier",
      null,
      null,
      null,
      "AEACN",
      "text",
      200,
      null,
      "AEACN",
      null,
      null,
      "Action Taken with Study Treatment",
      "CL.ACN",
      null,
      "Collected",
      "Investigator"
    ],
    [
      "IG.AE",
      "IT.AE.AEACNOTH",
      25,
      "No",
      null,
      null,
      "Record Qualifier",
      null,
      null,
      null,
      "AEACNOTH",
      "text",
      200,
      null,
      "AEACNOTH",
      null,
      null,
      "Other Action Taken",
      null,
      null,
      "Collected",
      "Investigator"
    ],
    [
      "IG.AE",
      "IT.AE.AEREL",
      26,
      "No",
      null,
      null,
      "Record Qualifier",
      null,
      null,
      null,
      "AEREL",
      "text",
      200,
      null,
      "AEREL",
      null,
      null,
      "Causality",
      null,
      null,
      "Collected",
      "Investigator"
    ],
    [
      "IG.AE",
      "IT.AE.AERELNST",
      27,
      "No",
      null,
      null,
      "Record Qualifier",
      null,
      null,
      null,
      "AERELNST",
      "text",
      200,
      null,
      "AERELNST",
      null,
      null,
      "Relationship to Non-Study Treatment",
      null,
      null,
      "Collected",
      "Investigator"
    ],
    [
      "IG.AE",
      "IT.AE.AEPATT",
      28,
      "No",
      null,
      null,
      "Record Qualifier",
      null,
      null,
      null,
      "AEPATT",
      "text",
      200,
      null,
      "AEPATT",
      null,
      null,
      "Pattern of Adverse Event",
      null,
      null,
      "Collected",
      "Investigator"
    ],
    [
      "IG.AE",
      "IT.AE.AEOUT",
      29,
      "No",
      null,
      null,
      "Record Qualifier",
      null,
      null,
      null,
      "AEOUT",
      "text",
      200,
      null,
      "AEOUT",
      null,
      null,
      "Outcome of Adverse Event",
      "CL.OUT",
      null,
      "Collected",
      "Investigator"
    ],
    [
      "IG.AE",
      "IT.AE.AESCAN",
      30,
      "No",
      null,
      null,
      "Record Qualifier",
      null,
      null,
      null,
      "AESCAN",
      "text",
      1,
      null,
      "AESCAN",
      null,
      null,
      "Involves Cancer",
      "CL.NY",
      null,
      "Collected",
      "Investigator"
    ],
    [
      "IG.AE",
      "IT.AE.AESCONG",
      31,
      "No",
      null,
      null,
      "Record Qualifier",
      null,
      null,
      null,
      "AESCONG",
      "text",
      1,
      null,
      "AESCONG",
      null,
      null,
      "Congenital Anomaly or Birth Defect",
      "CL.NY",
      null,
      "Collected",
      "Investigator"
    ],
    [
      "IG.AE",
      "IT.AE.AESDISAB",
      32,
      "No",
      null,
      null,
      "Record Qualifier",
      null,
      null,
      null,
      "AESDISAB",
      "text",
      1,
      null,
      "AESDISAB",
      null,
      null,
      "Persist or Signif Disability/Incapacity",
      "CL.NY",
      null,
      "Collected",
      "Investigator"
    ],
    [
      "IG.AE",
      "IT.AE.AESDTH",
      33,
      "No",
      null,
      null,
      "Record Qualifier",
      null,
      null,
      null,
      "AESDTH",
      "text",
      1,
      null,
      "AESDTH",
      null,
      null,
      "Results in Death",
      "CL.NY",
      null,
      "Collected",
      "Investigator"
    ],
    [
      "IG.AE",
      "IT.AE.AESHOSP",
      34,
      "No",
      null,
      null,
      "Record Qualifier",
      null,
      null,
      null,
      "AESHOSP",
      "text",
      1,
      null,
      "AESHOSP",
      null,
      null,
      "Requires or Prolongs Hospitalization",
      "CL.NY",
      null,
      "Collected",
      "Investigator"
    ],
    [
      "IG.AE",
      "IT.AE.AESLIFE",
      35,
      "No",
      null,
      null,
      "Record Qualifier",
      null,
      null,
      null,
      "AESLIFE",
      "text",
      1,
      null,
      "AESLIFE",
      null,
      null,
      "Is Life Threatening",
      "CL.NY",
      null,
      "Collected",
      "Investigator"
    ],
    [
      "IG.AE",
      "IT.AE.AESOD",
      36,
      "No",
      null,
      null,
      "Record Qualifier",
      null,
      null,
      null,
      "AESOD",
      "text",
      1,
      null,
      "AESOD",
      null,
      null,
      "Occurred with Overdose",
      "CL.NY",
      null,
      "Collected",
      "Investigator"
    ],
    [
      "IG.AE",
      "IT.AE.AESMIE",
      37,
      "No",
      null,
      null,
      "Record Qualifier",
      null,
      null,
      null,
      "AESMIE",
      "text",
      1,
      null,
      "AESMIE",
      null,
      null,
      "Other Medically Important Serious Event",
      "CL.NY",
      null,
      "Collected",
      "Investigator"
    ],
    [
      "IG.AE",
      "IT.AE.AECONTRT",
      38,
      "No",
      null,
      null,
      "Record Qualifier",
      null,
      null,
      null,
      "AECONTRT",
      "text",
      1,
      null,
      "AECONTRT",
      null,
      null,
      "Concomitant or Additional Trtmnt Given",
      "CL.NY",
      null,
      "Collected",
      "Investigator"
    ],
    [
      "IG.AE",
      "IT.AE.AETOXGR",
      39,
      "No",
      null,
      null,
      "Record Qualifier",
      null,
      null,
      null,
      "AETOXGR",
      "text",
      1,
      null,
      "AETOXGR",
      null,
      null,
      "Standard Toxicity Grade",
      null,
      null,
      "Collected",
      "Investigator"
    ],
    [
      "IG.AE",
      "IT.AE.AESTDTC",
      40,
      "No",
      null,
      null,
      "Timing",
      null,
      null,
      null,
      "AESTDTC",
      "datetime",
      null,
      null,
      "AESTDTC",
      null,
      null,
      "Start Date/Time of Adverse Event",
      null,
      null,
      "Collected",
      "Investigator"
    ],
    [
      "IG.AE",
      "IT.AE.AEENDTC",
      41,
      "No",
      null,
      null,
      "Timing",
      null,
      null,
      null,
      "AEENDTC",
      "datetime",
      null,
      null,
      "AEENDTC",
      null,
      null,
      "End Date/Time of Adverse Event",
      null,
      null,
      "Collected",
      "Investigator"
    ],
    [
      "IG.AE",
      "IT.AE.AEENRF",
      42,
      "No",
      null,
      null,
      "Timing",
      null,
      null,
      null,
      "AEENRF",
      "text",
      20,
      null,
      "AEENRF",
      null,
      null,
      "End Relative to Reference Period",
      "CL.STENRF",
      null,
      "Assigned",
      "Sponsor"
    ],
    [
      "IG.AE",
      "IT.AE.AEENRTPT",
      43,
      "No",
      null,
      null,
      "Timing",
      null,
      null,
      null,
      "AEENRTPT",
      "text",
      20,
      null,
      "AEENRTPT",
      null,
      null,
      "End Relative to Reference Time Point",
      "CL.STENRF",
      null,
      "Assigned",
      "Sponsor"
    ],
    [
      "IG.AE",
      "IT.AE.AEENTPT",
      44,
      "No",
      null,
      null,
      "Timing",
      null,
      null,
      null,
      "AEENTPT",
      "text",
      20,
      null,
      "AEENTPT",
      null,
      null,
      "End Reference Time Point",
      null,
      null,
      "Assigned",
      "Sponsor"
    ],
    [
      "IG.TS",
      "IT.TS.STUDYID",
      1,
      "Yes",
      null,
      null,
      "Identifier",
      null,
      null,
      null,
      "STUDYID",
      "text",
      "__PLACEHOLDER__",
      null,
      "STUDYID",
      null,
      null,
      "Study Identifier",
      null,
      null,
      "__PLACEHOLDER__",
      "__PLACEHOLDER__"
    ],
    [
      "IG.TS",
      "IT.TS.DOMAIN",
      2,
      "Yes",
      null,
      null,
      "Identifier",
      null,
      null,
      null,
      "DOMAIN",
      "text",
      "__PLACEHOLDER__",
      null,
      "DOMAIN",
      null,
      null,
      "Domain Abbreviation",
      null,
      null,
      "__PLACEHOLDER__",
      "__PLACEHOLDER__"
    ],
    [
      "IG.TS",
      "IT.TS.TSSEQ",
      3,
      "Yes",
      null,
      null,
      "Identifier",
      null,
      null,
      null,
      "TSSEQ",
      "integer",
      "__PLACEHOLDER__",
      null,
      "TSSEQ",
      null,
      null,
      "Sequence Number",
      null,
      null,
      "__PLACEHOLDER__",
      "__PLACEHOLDER__"
    ],
    [
      "IG.TS",
      "IT.TS.TSPARMCD",
      4,
      "Yes",
      null,
      null,
      "Topic",
      null,
      null,
      null,
      "TSPARMCD",
      "text",
      "__PLACEHOLDER__",
      null,
      "TSPARMCD",
      null,
      null,
      "Trial Summary Parameter Short Name",
      "CL.TSPARMCD",
      "VL.TS.TSPARMCD",
      "__PLACEHOLDER__",
      "__PLACEHOLDER__"
    ],
    [
      "IG.TS",
      "IT.TS.TSPARM",
      5,
      "Yes",
      null,
      null,
      "Synonym Qualifier",
      null,
      null,
      null,
      "TSPARM",
      "text",
      "__PLACEHOLDER__",
      null,
      "TSPARM",
      null,
      null,
      "Trial Summary Parameter",
      "CL.TSPARM",
      null,
      "__PLACEHOLDER__",
      "__PLACEHOLDER__"
    ],
    [
      "IG.TS",
      "IT.TS.TSVAL",
      6,
      "No",
      null,
      null,
      "Result Qualifier",
      null,
      null,
      null,
      "TSVAL",
      "text",
      "__PLACEHOLDER__",
      null,
      "TSVAL",
      null,
      null,
      "Parameter Value",
      null,
      null,
      "__PLACEHOLDER__",
      "__PLACEHOLDER__"
    ],
    [
      "IG.TS",
      "IT.TS.TSVALCD",
      7,
      "No",
      null,
      null,
      "Result Qualifier",
      null,
      null,
      null,
      "TSVALCD",
      "text",
      "__PLACEHOLDER__",
      null,
      "TSVALCD",
      null,
      null,
      "Parameter Value Code",
      null,
      null,
      "__PLACEHOLDER__",
      "__PLACEHOLDER__"
    ],
    [
      "IG.TS",
      "IT.TS.TSVCDREF",
      8,
      "No",
      null,
      null,
      "Result Qualifier",
      null,
      null,
      null,
      "TSVCDREF",
      "text",
      "__PLACEHOLDER__",
      null,
      "TSVCDREF",
      null,
      null,
      "Name of the Reference Terminology",
      "CL.DICTNAM",
      null,
      "__PLACEHOLDER__",
      "__PLACEHOLDER__"
    ],
    [
      "IG.TS",
      "IT.TS.TSVCDVER",
      9,
      "No",
      null,
      null,
      "Result Qualifier",
      null,
      null,
      null,
      "TSVCDVER",
      "text",
      "__PLACEHOLDER__",
      null,
      "TSVCDVER",
      null,
      null,
      "Version of the Reference Terminology",
      null,
      null,
      "__PLACEHOLDER__",
      "__PLACEHOLDER__"
    ],
    [
      "IG.TA",
      "IT.TA.STUDYID",
      1,
      "Yes",
      null,
      null,
      "Identifier",
      null,
      null,
      null,
      "STUDYID",
      "text",
      "__PLACEHOLDER__",
      null,
      "STUDYID",
      null,
      null,
      "Study Identifier",
      null,
      null,
      "__PLACEHOLDER__",
      "__PLACEHOLDER__"
    ],
    [
      "IG.TA",
      "IT.TA.DOMAIN",
      2,
      "Yes",
      null,
      null,
      "Identifier",
      null,
      null,
      null,
      "DOMAIN",
      "text",
      "__PLACEHOLDER__",
      null,
      "DOMAIN",
      null,
      null,
      "Domain Abbreviation",
      null,
      null,
      "__PLACEHOLDER__",
      "__PLACEHOLDER__"
    ],
    [
      "IG.TA",
      "IT.TA.ARMCD",
      3,
      "Yes",
      null,
      null,
      "Topic",
      null,
      null,
      null,
      "ARMCD",
      "text",
      "__PLACEHOLDER__",
      null,
      "ARMCD",
      null,
      null,
      "Planned Arm Code",
      "CL.ARMCD",
      null,
      "__PLACEHOLDER__",
      "__PLACEHOLDER__"
    ],
    [
      "IG.TA",
      "IT.TA.ARM",
      4,
      "Yes",
      null,
      null,
      "Synonym Qualifier",
      null,
      null,
      null,
      "ARM",
      "text",
      "__PLACEHOLDER__",
      null,
      "ARM",
      null,
      null,
      "Description of Planned Arm",
      "CL.ARM",
      null,
      "__PLACEHOLDER__",
      "__PLACEHOLDER__"
    ],
    [
      "IG.TA",
      "IT.TA.TAETORD",
      5,
      "Yes",
      null,
      null,
      "Timing",
      null,
      null,
      null,
      "TAETORD",
      "integer",
      "__PLACEHOLDER__",
      null,
      "TAETORD",
      null,
      null,
      "Planned Order of Element within Arm",
      null,
      null,
      "__PLACEHOLDER__",
      "__PLACEHOLDER__"
    ],
    [
      "IG.TA",
      "IT.TA.ETCD",
      6,
      "Yes",
      null,
      null,
      "Record Qualifier",
      null,
      null,
      null,
      "ETCD",
      "text",
      "__PLACEHOLDER__",
      null,
      "ETCD",
      null,
      null,
      "Element Code",
      "CL.ETCD",
      null,
      "__PLACEHOLDER__",
      "__PLACEHOLDER__"
    ],
    [
      "IG.TA",
      "IT.TA.ELEMENT",
      7,
      "No",
      null,
      null,
      "Synonym Qualifier",
      null,
      null,
      null,
      "ELEMENT",
      "text",
      "__PLACEHOLDER__",
      null,
      "ELEMENT",
      null,
      null,
      "Description of Element",
      "CL.ELEMENT",
      null,
      "__PLACEHOLDER__",
      "__PLACEHOLDER__"
    ],
    [
      "IG.TA",
      "IT.TA.TABRANCH",
      8,
      "No",
      null,
      null,
      "Rule",
      null,
      null,
      null,
      "TABRANCH",
      "text",
      "__PLACEHOLDER__",
      null,
      "TABRANCH",
      null,
      null,
      "Branch",
      null,
      null,
      "__PLACEHOLDER__",
      "__PLACEHOLDER__"
    ],
    [
      "IG.TA",
      "IT.TA.TATRANS",
      9,
      "No",
      null,
      null,
      "Rule",
      null,
      null,
      null,
      "TATRANS",
      "text",
      "__PLACEHOLDER__",
      null,
      "TATRANS",
      null,
      null,
      "Transition Rule",
      null,
      null,
      "__PLACEHOLDER__",
      "__PLACEHOLDER__"
    ],
    [
      "IG.TA",
      "IT.TA.EPOCH",
      10,
      "Yes",
      null,
      null,
      "Timing",
      null,
      null,
      null,
      "EPOCH",
      "text",
      "__PLACEHOLDER__",
      null,
      "EPOCH",
      null,
      null,
      "Epoch",
      "CL.EPOCH",
      null,
      "__PLACEHOLDER__",
      "__PLACEHOLDER__"
    ],
    [
      "IG.TE",
      "IT.TE.STUDYID",
      1,
      "Yes",
      null,
      null,
      "Identifier",
      null,
      null,
      null,
      "STUDYID",
      "text",
      "__PLACEHOLDER__",
      null,
      "STUDYID",
      null,
      null,
      "Study Identifier",
      null,
      null,
      "__PLACEHOLDER__",
      "__PLACEHOLDER__"
    ],
    [
      "IG.TE",
      "IT.TE.DOMAIN",
      2,
      "Yes",
      null,
      null,
      "Identifier",
      null,
      null,
      null,
      "DOMAIN",
      "text",
      "__PLACEHOLDER__",
      null,
      "DOMAIN",
      null,
      null,
      "Domain Abbreviation",
      null,
      null,
      "__PLACEHOLDER__",
      "__PLACEHOLDER__"
    ],
    [
      "IG.TE",
      "IT.TE.ETCD",
      3,
      "Yes",
      null,
      null,
      "Topic",
      null,
      null,
      null,
      "ETCD",
      "text",
      "__PLACEHOLDER__",
      null,
      "ETCD",
      null,
      null,
      "Element Code",
      "CL.ETCD",
      null,
      "__PLACEHOLDER__",
      "__PLACEHOLDER__"
    ],
    [
      "IG.TE",
      "IT.TE.ELEMENT",
      4,
      "Yes",
      null,
      null,
      "Synonym Qualifier",
      null,
      null,
      null,
      "ELEMENT",
      "text",
      "__PLACEHOLDER__",
      null,
      "ELEMENT",
      null,
      null,
      "Description of Element",
      "CL.ELEMENT",
      null,
      "__PLACEHOLDER__",
      "__PLACEHOLDER__"
    ],
    [
      "IG.TE",
      "IT.TE.TESTRL",
      5,
      "Yes",
      null,
      null,
      "Rule",
      null,
      null,
      null,
      "TESTRL",
      "text",
      "__PLACEHOLDER__",
      null,
      "TESTRL",
      null,
      null,
      "Rule for Start of Element",
      null,
      null,
      "__PLACEHOLDER__",
      "__PLACEHOLDER__"
    ],
    [
      "IG.TI",
      "IT.TI.STUDYID",
      1,
      "Yes",
      null,
      null,
      "Identifier",
      null,
      null,
      null,
      "STUDYID",
      "text",
      "__PLACEHOLDER__",
      null,
      "STUDYID",
      null,
      null,
      "Study Identifier",
      null,
      null,
      "__PLACEHOLDER__",
      "__PLACEHOLDER__"
    ],
    [
      "IG.TI",
      "IT.TI.DOMAIN",
      2,
      "Yes",
      null,
      null,
      "Identifier",
      null,
      null,
      null,
      "DOMAIN",
      "text",
      "__PLACEHOLDER__",
      null,
      "DOMAIN",
      null,
      null,
      "Domain Abbreviation",
      null,
      null,
      "__PLACEHOLDER__",
      "__PLACEHOLDER__"
    ],
    [
      "IG.TI",
      "IT.TI.IETESTCD",
      3,
      "Yes",
      null,
      null,
      "Topic",
      null,
      null,
      null,
      "IETESTCD",
      "text",
      "__PLACEHOLDER__",
      null,
      "IETESTCD",
      null,
      null,
      "Incl/Excl Criterion Short Name",
      "CL.IETESTCD",
      null,
      "__PLACEHOLDER__",
      "__PLACEHOLDER__"
    ],
    [
      "IG.TI",
      "IT.TI.IETEST",
      4,
      "Yes",
      null,
      null,
      "Synonym Qualifier",
      null,
      null,
      null,
      "IETEST",
      "text",
      "__PLACEHOLDER__",
      null,
      "IETEST",
      null,
      null,
      "Inclusion/Exclusion Criterion",
      "CL.IETEST",
      null,
      "__PLACEHOLDER__",
      "__PLACEHOLDER__"
    ],
    [
      "IG.TI",
      "IT.TI.IECAT",
      5,
      "Yes",
      null,
      null,
      "Grouping Qualifier",
      null,
      null,
      null,
      "IECAT",
      "text",
      "__PLACEHOLDER__",
      null,
      "IECAT",
      null,
      null,
      "Inclusion/Exclusion Category",
      "CL.IECAT",
      null,
      "__PLACEHOLDER__",
      "__PLACEHOLDER__"
    ],
    [
      "IG.TV",
      "IT.TV.STUDYID",
      1,
      "Yes",
      null,
      null,
      "Identifier",
      null,
      null,
      null,
      "STUDYID",
      "text",
      "__PLACEHOLDER__",
      null,
      "STUDYID",
      null,
      null,
      "Study Identifier",
      null,
      null,
      "__PLACEHOLDER__",
      "__PLACEHOLDER__"
    ],
    [
      "IG.TV",
      "IT.TV.DOMAIN",
      2,
      "Yes",
      null,
      null,
      "Identifier",
      null,
      null,
      null,
      "DOMAIN",
      "text",
      "__PLACEHOLDER__",
      null,
      "DOMAIN",
      null,
      null,
      "Domain Abbreviation",
      null,
      null,
      "__PLACEHOLDER__",
      "__PLACEHOLDER__"
    ],
    [
      "IG.TV",
      "IT.TV.VISITNUM",
      3,
      "Yes",
      null,
      null,
      "Topic",
      null,
      null,
      null,
      "VISITNUM",
      "integer",
      "__PLACEHOLDER__",
      null,
      "VISITNUM",
      null,
      null,
      "Visit Number",
      null,
      null,
      "__PLACEHOLDER__",
      "__PLACEHOLDER__"
    ],
    [
      "IG.TV",
      "IT.TV.VISIT",
      4,
      "Yes",
      null,
      null,
      "Synonym Qualifier",
      null,
      null,
      null,
      "VISIT",
      "text",
      "__PLACEHOLDER__",
      null,
      "VISIT",
      null,
      null,
      "Visit Name",
      null,
      null,
      "__PLACEHOLDER__",
      "__PLACEHOLDER__"
    ],
    [
      "IG.TV",
      "IT.TV.VISITDY",
      5,
      "No",
      null,
      null,
      "Timing",
      null,
      null,
      null,
      "VISITDY",
      "integer",
      "__PLACEHOLDER__",
      null,
      "VISITDY",
      null,
      null,
      "Planned Study Day of Visit",
      null,
      null,
      "__PLACEHOLDER__",
      "__PLACEHOLDER__"
    ],
    [
      "IG.TV",
      "IT.TV.ARMCD",
      6,
      "No",
      null,
      null,
      "Record Qualifier",
      null,
      null,
      null,
      "ARMCD",
      "text",
      "__PLACEHOLDER__",
      null,
      "ARMCD",
      null,
      null,
      "Planned Arm Code",
      "CL.ARMCD",
      null,
      "__PLACEHOLDER__",
      "__PLACEHOLDER__"
    ],
    [
      "IG.TV",
      "IT.TV.ARM",
      7,
      "No",
      null,
      null,
      "Synonym Qualifier",
      null,
      null,
      null,
      "ARM",
      "text",
      "__PLACEHOLDER__",
      null,
      "ARM",
      null,
      null,
      "Description of Planned Arm",
      "CL.ARM",
      null,
      "__PLACEHOLDER__",
      "__PLACEHOLDER__"
    ],
    [
      "IG.TV",
      "IT.TV.TVSTRL",
      8,
      "Yes",
      null,
      null,
      "Rule",
      null,
      null,
      null,
      "TVSTRL",
      "text",
      "__PLACEHOLDER__",
      null,
      "TVSTRL",
      null,
      null,
      "Visit Start Rule",
      null,
      null,
      "__PLACEHOLDER__",
      "__PLACEHOLDER__"
    ],
    [
      "IG.TV",
      "IT.TV.TVENRL",
      9,
      "No",
      null,
      null,
      "Rule",
      null,
      null,
      null,
      "TVENRL",
      "text",
      "__PLACEHOLDER__",
      null,
      "TVENRL",
      null,
      null,
      "Visit End Rule",
      null,
      null,
      "__PLACEHOLDER__",
      "__PLACEHOLDER__"
    ],
    [
      "IG.SV",
      "IT.SV.STUDYID",
      1,
      "Yes",
      null,
      null,
      "Identifier",
      null,
      null,
      null,
      "STUDYID",
      "text",
      "__PLACEHOLDER__",
      null,
      "STUDYID",
      null,
      null,
      "Study Identifier",
      null,
      null,
      "__PLACEHOLDER__",
      "__PLACEHOLDER__"
    ],
    [
      "IG.SV",
      "IT.SV.DOMAIN",
      2,
      "Yes",
      null,
      null,
      "Identifier",
      null,
      null,
      null,
      "DOMAIN",
      "text",
      "__PLACEHOLDER__",
      null,
      "DOMAIN",
      null,
      null,
      "Domain Abbreviation",
      null,
      null,
      "__PLACEHOLDER__",
      "__PLACEHOLDER__"
    ],
    [
      "IG.SV",
      "IT.SV.USUBJID",
      3,
      "Yes",
      null,
      null,
      "Identifier",
      null,
      null,
      null,
      "USUBJID",
      "text",
      "__PLACEHOLDER__",
      null,
      "USUBJID",
      null,
      null,
      "Unique Subject Identifier",
      null,
      null,
      "__PLACEHOLDER__",
      "__PLACEHOLDER__"
    ],
    [
      "IG.SV",
      "IT.SV.VISITNUM",
      4,
      "Yes",
      null,
      null,
      "Topic",
      null,
      null,
      null,
      "VISITNUM",
      "integer",
      "__PLACEHOLDER__",
      null,
      "VISITNUM",
      null,
      null,
      "Visit Number",
      null,
      null,
      "__PLACEHOLDER__",
      "__PLACEHOLDER__"
    ],
    [
      "IG.SV",
      "IT.SV.VISIT",
      5,
      "No",
      null,
      null,
      "Synonym Qualifier",
      null,
      null,
      null,
      "VISIT",
      "text",
      "__PLACEHOLDER__",
      null,
      "VISIT",
      null,
      null,
      "Visit Name",
      null,
      null,
      "__PLACEHOLDER__",
      "__PLACEHOLDER__"
    ],
    [
      "IG.SV",
      "IT.SV.SVPRESP",
      6,
      "No",
      null,
      null,
      "Variable Qualifier",
      null,
      null,
      null,
      "SVPRESP",
      "text",
      "__PLACEHOLDER__",
      null,
      "SVPRESP",
      null,
      null,
      "Pre-specified",
      "CL.NY",
      null,
      "__PLACEHOLDER__",
      "__PLACEHOLDER__"
    ],
    [
      "IG.SV",
      "IT.SV.SVOCCUR",
      7,
      "No",
      null,
      null,
      "Record Qualifier",
      null,
      null,
      null,
      "SVOCCUR",
      "text",
      "__PLACEHOLDER__",
      null,
      "SVOCCUR",
      null,
      null,
      "Occurrence",
      "CL.NY",
      null,
      "__PLACEHOLDER__",
      "__PLACEHOLDER__"
    ],
    [
      "IG.SV",
      "IT.SV.SVCNTMOD",
      8,
      "No",
      null,
      null,
      "Record Qualifier",
      null,
      null,
      null,
      "SVCNTMOD",
      "text",
      "__PLACEHOLDER__",
      null,
      "SVCNTMOD",
      null,
      null,
      "Contact Mode",
      "CL.CNTMODE",
      null,
      "__PLACEHOLDER__",
      "__PLACEHOLDER__"
    ],
    [
      "IG.SV",
      "IT.SV.SVSTDTC",
      9,
      "No",
      null,
      null,
      "Timing",
      null,
      null,
      null,
      "SVSTDTC",
      "datetime",
      null,
      null,
      "SVSTDTC",
      null,
      null,
      "Start Date/Time of Observation",
      null,
      null,
      "__PLACEHOLDER__",
      "__PLACEHOLDER__"
    ],
    [
      "IG.SV",
      "IT.SV.SVENDTC",
      10,
      "No",
      null,
      null,
      "Timing",
      null,
      null,
      null,
      "SVENDTC",
      "datetime",
      null,
      null,
      "SVENDTC",
      null,
      null,
      "End Date/Time of Observation",
      null,
      null,
      "__PLACEHOLDER__",
      "__PLACEHOLDER__"
    ],
    [
      "IG.IE",
      "IT.IE.STUDYID",
      1,
      "Yes",
      null,
      null,
      "Identifier",
      null,
      null,
      null,
      "STUDYID",
      "text",
      "__PLACEHOLDER__",
      null,
      "STUDYID",
      null,
      null,
      "Study Identifier",
      null,
      null,
      "__PLACEHOLDER__",
      "__PLACEHOLDER__"
    ],
    [
      "IG.IE",
      "IT.IE.DOMAIN",
      2,
      "Yes",
      null,
      null,
      "Identifier",
      null,
      null,
      null,
      "DOMAIN",
      "text",
      "__PLACEHOLDER__",
      null,
      "DOMAIN",
      null,
      null,
      "Domain Abbreviation",
      null,
      null,
      "__PLACEHOLDER__",
      "__PLACEHOLDER__"
    ],
    [
      "IG.IE",
      "IT.IE.USUBJID",
      3,
      "Yes",
      null,
      null,
      "Identifier",
      null,
      null,
      null,
      "USUBJID",
      "text",
      "__PLACEHOLDER__",
      null,
      "USUBJID",
      null,
      null,
      "Unique Subject Identifier",
      null,
      null,
      "__PLACEHOLDER__",
      "__PLACEHOLDER__"
    ],
    [
      "IG.IE",
      "IT.IE.IESEQ",
      4,
      "Yes",
      null,
      null,
      "Identifier",
      null,
      null,
      null,
      "IESEQ",
      "integer",
      "__PLACEHOLDER__",
      null,
      "IESEQ",
      null,
      null,
      "Sequence Number",
      null,
      null,
      "__PLACEHOLDER__",
      "__PLACEHOLDER__"
    ],
    [
      "IG.IE",
      "IT.IE.IETESTCD",
      5,
      "Yes",
      null,
      null,
      "Topic",
      null,
      null,
      null,
      "IETESTCD",
      "text",
      "__PLACEHOLDER__",
      null,
      "IETESTCD",
      null,
      null,
      "Inclusion/Exclusion Criterion Short Name",
      "CL.IETESTCD",
      null,
      "__PLACEHOLDER__",
      "__PLACEHOLDER__"
    ],
    [
      "IG.IE",
      "IT.IE.IETEST",
      6,
      "Yes",
      null,
      null,
      "Synonym Qualifier",
      null,
      null,
      null,
      "IETEST",
      "text",
      "__PLACEHOLDER__",
      null,
      "IETEST",
      null,
      null,
      "Inclusion/Exclusion Criterion",
      "CL.IETEST",
      null,
      "__PLACEHOLDER__",
      "__PLACEHOLDER__"
    ],
    [
      "IG.IE",
      "IT.IE.IECAT",
      7,
      "Yes",
      null,
      null,
      "Grouping Qualifier",
      null,
      null,
      null,
      "IECAT",
      "text",
      "__PLACEHOLDER__",
      null,
      "IECAT",
      null,
      null,
      "Inclusion/Exclusion Category",
      "CL.IECAT",
      null,
      "__PLACEHOLDER__",
      "__PLACEHOLDER__"
    ],
    [
      "IG.IE",
      "IT.IE.IEORRES",
      8,
      "Yes",
      null,
      null,
      "Result Qualifier",
      null,
      null,
      null,
      "IEORRES",
      "text",
      "__PLACEHOLDER__",
      null,
      "IEORRES",
      null,
      null,
      "I/E Criterion Original Result",
      "CL.NY",
      "VL.IE.IEORRES",
      "__PLACEHOLDER__",
      "__PLACEHOLDER__"
    ],
    [
      "IG.IE",
      "IT.IE.IESTRESC",
      9,
      "Yes",
      null,
      null,
      "Result Qualifier",
      null,
      null,
      null,
      "IESTRESC",
      "text",
      "__PLACEHOLDER__",
      null,
      "IESTRESC",
      null,
      null,
      "I/E Criterion Result in Std Format",
      "CL.NY",
      null,
      "__PLACEHOLDER__",
      "__PLACEHOLDER__"
    ],
    [
      "IG.SE",
      "IT.SE.STUDYID",
      1,
      "Yes",
      null,
      null,
      "Identifier",
      null,
      null,
      null,
      "STUDYID",
      "text",
      "__PLACEHOLDER__",
      null,
      "STUDYID",
      null,
      null,
      "Study Identifier",
      null,
      null,
      "__PLACEHOLDER__",
      "__PLACEHOLDER__"
    ],
    [
      "IG.SE",
      "IT.SE.DOMAIN",
      2,
      "Yes",
      null,
      null,
      "Identifier",
      null,
      null,
      null,
      "DOMAIN",
      "text",
      "__PLACEHOLDER__",
      null,
      "DOMAIN",
      null,
      null,
      "Domain Abbreviation",
      null,
      null,
      "__PLACEHOLDER__",
      "__PLACEHOLDER__"
    ],
    [
      "IG.SE",
      "IT.SE.USUBJID",
      3,
      "Yes",
      null,
      null,
      "Identifier",
      null,
      null,
      null,
      "USUBJID",
      "text",
      "__PLACEHOLDER__",
      null,
      "USUBJID",
      null,
      null,
      "Unique Subject Identifier",
      null,
      null,
      "__PLACEHOLDER__",
      "__PLACEHOLDER__"
    ],
    [
      "IG.SE",
      "IT.SE.SESEQ",
      4,
      "Yes",
      null,
      null,
      "Identifier",
      null,
      null,
      null,
      "SESEQ",
      "integer",
      "__PLACEHOLDER__",
      null,
      "SESEQ",
      null,
      null,
      "Sequence Number",
      null,
      null,
      "__PLACEHOLDER__",
      "__PLACEHOLDER__"
    ],
    [
      "IG.SE",
      "IT.SE.ETCD",
      5,
      "Yes",
      null,
      null,
      "Topic",
      null,
      null,
      null,
      "ETCD",
      "text",
      "__PLACEHOLDER__",
      null,
      "ETCD",
      null,
      null,
      "Element Code",
      "CL.ETCD",
      null,
      "__PLACEHOLDER__",
      "__PLACEHOLDER__"
    ],
    [
      "IG.SE",
      "IT.SE.ELEMENT",
      6,
      "No",
      null,
      null,
      "Synonym Qualifier",
      null,
      null,
      null,
      "ELEMENT",
      "text",
      "__PLACEHOLDER__",
      null,
      "ELEMENT",
      null,
      null,
      "Description of Element",
      "CL.ELEMENT",
      null,
      "__PLACEHOLDER__",
      "__PLACEHOLDER__"
    ],
    [
      "IG.SE",
      "IT.SE.EPOCH",
      7,
      "No",
      null,
      null,
      "Timing",
      null,
      null,
      null,
      "EPOCH",
      "text",
      "__PLACEHOLDER__",
      null,
      "EPOCH",
      null,
      null,
      "Epoch",
      "CL.EPOCH",
      null,
      "__PLACEHOLDER__",
      "__PLACEHOLDER__"
    ],
    [
      "IG.SE",
      "IT.SE.SESTDTC",
      8,
      "Yes",
      null,
      null,
      "Timing",
      null,
      null,
      null,
      "SESTDTC",
      "datetime",
      null,
      null,
      "SESTDTC",
      null,
      null,
      "Start Date/Time of Element",
      null,
      null,
      "__PLACEHOLDER__",
      "__PLACEHOLDER__"
    ],
    [
      "IG.SE",
      "IT.SE.SEENDTC",
      9,
      "No",
      null,
      null,
      "Timing",
      null,
      null,
      null,
      "SEENDTC",
      "datetime",
      null,
      null,
      "SEENDTC",
      null,
      null,
      "End Date/Time of Element",
      null,
      null,
      "__PLACEHOLDER__",
      "__PLACEHOLDER__"
    ]
  ]
}