<?xml version="1.0" encoding="UTF-8" ?>
<ODM AsOfDateTime="2021-09-28T00:00:00+00:00" CreationDateTime="2021-12-30T03:48:30.780449+00:00"
    FileOID="ODM.CDASHIGv2.2.2021-09-28" FileType="Snapshot" Granularity="Metadata"
    ODMVersion="1.3.2" Originator="CDISC LIBRARY" SourceSystem="cdisc_library_api"
    SourceSystemVersion="1.0" mdr:LibraryXMLVersion="1.0.0" xmlns="http://www.cdisc.org/ns/odm/v1.3"
    xmlns:mdr="http://www.cdisc.org/ns/library-xml/v1.0" xmlns:xlink="http://www.w3.org/1999/xlink">
    <Study OID="STUDY.CDASHIG.v2.2">
        <GlobalVariables>
            <StudyName>CDASHIG v2.2</StudyName>
            <StudyDescription>Clinical Data Acquisition Standards Harmonization Implementation Guide
                for Human Clinical Trials Version 2.2</StudyDescription>
            <ProtocolName>CDISC Standard Publication</ProtocolName>
        </GlobalVariables>
        <MetaDataVersion Name="CDASHIG v2.2 Metadata" OID="MDV.CDASHIG.v2.2"
            mdr:DatePublished="2021-09-28" mdr:Status="Final">
            <ItemGroupDef Domain="AG" Name="AG" OID="IGD.AG" Purpose="Data Collection"
                Repeating="No">
                <Description>
                    <TranslatedText xml:lang="en">Procedure Agents</TranslatedText>
                </Description>
                <ItemRef ItemOID="IT.AG.STUDYID" Mandatory="No" OrderNumber="1"/>
                <ItemRef ItemOID="IT.AG.SITEID" Mandatory="No" OrderNumber="2"/>
                <ItemRef ItemOID="IT.AG.SUBJID" Mandatory="No" OrderNumber="3"/>
                <ItemRef ItemOID="IT.AG.AGCAT" Mandatory="No" OrderNumber="4"/>
                <ItemRef ItemOID="IT.AG.AGSCAT" Mandatory="No" OrderNumber="5"/>
                <ItemRef ItemOID="IT.AG.AGYN" Mandatory="No" OrderNumber="6"/>
                <ItemRef ItemOID="IT.AG.AGSPID" Mandatory="No" OrderNumber="7"/>
                <ItemRef ItemOID="IT.AG.AGTRT" Mandatory="No" OrderNumber="8"/>
                <ItemRef ItemOID="IT.AG.AGPRESP" Mandatory="No" OrderNumber="9"/>
                <ItemRef ItemOID="IT.AG.AGOCCUR" Mandatory="No" OrderNumber="10"/>
                <ItemRef ItemOID="IT.AG.AGDOSE" Mandatory="No" OrderNumber="11"/>
                <ItemRef ItemOID="IT.AG.AGDSTXT" Mandatory="No" OrderNumber="12"/>
                <ItemRef ItemOID="IT.AG.AGDOSU" Mandatory="No" OrderNumber="13"/>
                <ItemRef ItemOID="IT.AG.AGDOSFRM" Mandatory="No" OrderNumber="14"/>
                <ItemRef ItemOID="IT.AG.AGDOSFRQ" Mandatory="No" OrderNumber="15"/>
                <ItemRef ItemOID="IT.AG.AGROUTE" Mandatory="No" OrderNumber="16"/>
                <ItemRef ItemOID="IT.AG.AGSTDAT" Mandatory="No" OrderNumber="17"/>
                <ItemRef ItemOID="IT.AG.AGSTTIM" Mandatory="No" OrderNumber="18"/>
                <ItemRef ItemOID="IT.AG.AGPRIOR" Mandatory="No" OrderNumber="19"/>
                <ItemRef ItemOID="IT.AG.AGONGO" Mandatory="No" OrderNumber="20"/>
                <ItemRef ItemOID="IT.AG.AGENDAT" Mandatory="No" OrderNumber="21"/>
                <ItemRef ItemOID="IT.AG.AGENTIM" Mandatory="No" OrderNumber="22"/>
                <ItemRef ItemOID="IT.AG.AGDECOD" Mandatory="No" OrderNumber="23"/>
                <ItemRef ItemOID="IT.AG.AGCLAS" Mandatory="No" OrderNumber="24"/>
                <ItemRef ItemOID="IT.AG.AGCLASCD" Mandatory="No" OrderNumber="25"/>
                <mdr:Class Name="INTERVENTIONS"/>
            </ItemGroupDef>
            <ItemGroupDef Domain="CM" Name="CM" OID="IGD.CM" Purpose="Data Collection"
                Repeating="No">
                <Description>
                    <TranslatedText xml:lang="en">Concomitant/Prior Medications</TranslatedText>
                </Description>
                <ItemRef ItemOID="IT.CM.STUDYID" Mandatory="No" OrderNumber="1"/>
                <ItemRef ItemOID="IT.CM.SITEID" Mandatory="No" OrderNumber="2"/>
                <ItemRef ItemOID="IT.CM.SUBJID" Mandatory="No" OrderNumber="3"/>
                <ItemRef ItemOID="IT.CM.CMCAT" Mandatory="No" OrderNumber="4"/>
                <ItemRef ItemOID="IT.CM.CMSCAT" Mandatory="No" OrderNumber="5"/>
                <ItemRef ItemOID="IT.CM.CMYN" Mandatory="No" OrderNumber="6"/>
                <ItemRef ItemOID="IT.CM.CMSPID" Mandatory="No" OrderNumber="7"/>
                <ItemRef ItemOID="IT.CM.CMTRT" Mandatory="No" OrderNumber="8"/>
                <ItemRef ItemOID="IT.CM.CMPRESP" Mandatory="No" OrderNumber="9"/>
                <ItemRef ItemOID="IT.CM.CMOCCUR" Mandatory="No" OrderNumber="10"/>
                <ItemRef ItemOID="IT.CM.CMINGRD" Mandatory="No" OrderNumber="11"/>
                <ItemRef ItemOID="IT.CM.CMINDC" Mandatory="No" OrderNumber="12"/>
                <ItemRef ItemOID="IT.CM.CMAENO" Mandatory="No" OrderNumber="13"/>
                <ItemRef ItemOID="IT.CM.CMMHNO" Mandatory="No" OrderNumber="14"/>
                <ItemRef ItemOID="IT.CM.CMDOSE" Mandatory="No" OrderNumber="15"/>
                <ItemRef ItemOID="IT.CM.CMDSTXT" Mandatory="No" OrderNumber="16"/>
                <ItemRef ItemOID="IT.CM.CMDOSTOT" Mandatory="No" OrderNumber="17"/>
                <ItemRef ItemOID="IT.CM.CMDOSU" Mandatory="No" OrderNumber="18"/>
                <ItemRef ItemOID="IT.CM.CMDOSFRM" Mandatory="No" OrderNumber="19"/>
                <ItemRef ItemOID="IT.CM.CMDOSFRQ" Mandatory="No" OrderNumber="20"/>
                <ItemRef ItemOID="IT.CM.CMROUTE" Mandatory="No" OrderNumber="21"/>
                <ItemRef ItemOID="IT.CM.CMSTDAT" Mandatory="No" OrderNumber="22"/>
                <ItemRef ItemOID="IT.CM.CMSTTIM" Mandatory="No" OrderNumber="23"/>
                <ItemRef ItemOID="IT.CM.CMPRIOR" Mandatory="No" OrderNumber="24"/>
                <ItemRef ItemOID="IT.CM.CMONGO" Mandatory="No" OrderNumber="25"/>
                <ItemRef ItemOID="IT.CM.CMENDAT" Mandatory="No" OrderNumber="26"/>
                <ItemRef ItemOID="IT.CM.CMENTIM" Mandatory="No" OrderNumber="27"/>
                <ItemRef ItemOID="IT.CM.CMRSDISC" Mandatory="No" OrderNumber="28"/>
                <ItemRef ItemOID="IT.CM.CMDECOD" Mandatory="No" OrderNumber="29"/>
                <ItemRef ItemOID="IT.CM.CMCLAS" Mandatory="No" OrderNumber="30"/>
                <ItemRef ItemOID="IT.CM.CMCLASCD" Mandatory="No" OrderNumber="31"/>
                <ItemRef ItemOID="IT.CM.CMATC1" Mandatory="No" OrderNumber="32"/>
                <ItemRef ItemOID="IT.CM.CMATC1CD" Mandatory="No" OrderNumber="33"/>
                <ItemRef ItemOID="IT.CM.CMATC2" Mandatory="No" OrderNumber="34"/>
                <ItemRef ItemOID="IT.CM.CMATC2CD" Mandatory="No" OrderNumber="35"/>
                <ItemRef ItemOID="IT.CM.CMATC3" Mandatory="No" OrderNumber="36"/>
                <ItemRef ItemOID="IT.CM.CMATC3CD" Mandatory="No" OrderNumber="37"/>
                <ItemRef ItemOID="IT.CM.CMATC4" Mandatory="No" OrderNumber="38"/>
                <ItemRef ItemOID="IT.CM.CMATC4CD" Mandatory="No" OrderNumber="39"/>
                <ItemRef ItemOID="IT.CM.CMATC5" Mandatory="No" OrderNumber="40"/>
                <ItemRef ItemOID="IT.CM.CMATC5CD" Mandatory="No" OrderNumber="41"/>
                <mdr:Class Name="INTERVENTIONS"/>
            </ItemGroupDef>
            <ItemGroupDef Domain="EC" Name="EC" OID="IGD.EC" Purpose="Data Collection"
                Repeating="No">
                <Description>
                    <TranslatedText xml:lang="en">Exposure as Collected</TranslatedText>
                </Description>
                <ItemRef ItemOID="IT.EC.STUDYID" Mandatory="No" OrderNumber="1"/>
                <ItemRef ItemOID="IT.EC.SITEID" Mandatory="No" OrderNumber="2"/>
                <ItemRef ItemOID="IT.EC.SUBJID" Mandatory="No" OrderNumber="3"/>
                <ItemRef ItemOID="IT.EC.EPOCH" Mandatory="No" OrderNumber="4"/>
                <ItemRef ItemOID="IT.EC.ECYN" Mandatory="No" OrderNumber="5"/>
                <ItemRef ItemOID="IT.EC.ECCAT" Mandatory="No" OrderNumber="6"/>
                <ItemRef ItemOID="IT.EC.ECSCAT" Mandatory="No" OrderNumber="7"/>
                <ItemRef ItemOID="IT.EC.ECTRT" Mandatory="No" OrderNumber="8"/>
                <ItemRef ItemOID="IT.EC.ECPRESP" Mandatory="No" OrderNumber="9"/>
                <ItemRef ItemOID="IT.EC.ECOCCUR" Mandatory="No" OrderNumber="10"/>
                <ItemRef ItemOID="IT.EC.ECREASOC" Mandatory="No" OrderNumber="11"/>
                <ItemRef ItemOID="IT.EC.ECMOOD" Mandatory="No" OrderNumber="12"/>
                <ItemRef ItemOID="IT.EC.ECREFID" Mandatory="No" OrderNumber="13"/>
                <ItemRef ItemOID="IT.EC.ECLOT" Mandatory="No" OrderNumber="14"/>
                <ItemRef ItemOID="IT.EC.ECFAST" Mandatory="No" OrderNumber="15"/>
                <ItemRef ItemOID="IT.EC.ECDOSFRM" Mandatory="No" OrderNumber="16"/>
                <ItemRef ItemOID="IT.EC.ECSTDAT" Mandatory="No" OrderNumber="17"/>
                <ItemRef ItemOID="IT.EC.ECSTTIM" Mandatory="No" OrderNumber="18"/>
                <ItemRef ItemOID="IT.EC.ECENDAT" Mandatory="No" OrderNumber="19"/>
                <ItemRef ItemOID="IT.EC.ECENTIM" Mandatory="No" OrderNumber="20"/>
                <ItemRef ItemOID="IT.EC.ECDSTXT" Mandatory="No" OrderNumber="21"/>
                <ItemRef ItemOID="IT.EC.ECDOSU" Mandatory="No" OrderNumber="22"/>
                <ItemRef ItemOID="IT.EC.ECDOSFRQ" Mandatory="No" OrderNumber="23"/>
                <ItemRef ItemOID="IT.EC.ECROUTE" Mandatory="No" OrderNumber="24"/>
                <ItemRef ItemOID="IT.EC.ECDOSRGM" Mandatory="No" OrderNumber="25"/>
                <ItemRef ItemOID="IT.EC.ECDOSADJ" Mandatory="No" OrderNumber="26"/>
                <ItemRef ItemOID="IT.EC.ECADJ" Mandatory="No" OrderNumber="27"/>
                <ItemRef ItemOID="IT.EC.ECITRPYN" Mandatory="No" OrderNumber="28"/>
                <ItemRef ItemOID="IT.EC.ECCINTD" Mandatory="No" OrderNumber="29"/>
                <ItemRef ItemOID="IT.EC.ECCINTDU" Mandatory="No" OrderNumber="30"/>
                <ItemRef ItemOID="IT.EC.ECLOC" Mandatory="No" OrderNumber="31"/>
                <ItemRef ItemOID="IT.EC.ECLAT" Mandatory="No" OrderNumber="32"/>
                <ItemRef ItemOID="IT.EC.ECDIR" Mandatory="No" OrderNumber="33"/>
                <ItemRef ItemOID="IT.EC.ECVAMT" Mandatory="No" OrderNumber="34"/>
                <ItemRef ItemOID="IT.EC.ECVAMTU" Mandatory="No" OrderNumber="35"/>
                <ItemRef ItemOID="IT.EC.ECFLRT" Mandatory="No" OrderNumber="36"/>
                <ItemRef ItemOID="IT.EC.ECFLRTU" Mandatory="No" OrderNumber="37"/>
                <ItemRef ItemOID="IT.EC.ECTPT" Mandatory="No" OrderNumber="38"/>
                <ItemRef ItemOID="IT.EC.ECTRTCMP" Mandatory="No" OrderNumber="39"/>
                <mdr:Class Name="INTERVENTIONS"/>
            </ItemGroupDef>
            <ItemGroupDef Domain="EX" Name="EX" OID="IGD.EX" Purpose="Data Collection"
                Repeating="No">
                <Description>
                    <TranslatedText xml:lang="en">Exposure</TranslatedText>
                </Description>
                <ItemRef ItemOID="IT.EX.STUDYID" Mandatory="No" OrderNumber="1"/>
                <ItemRef ItemOID="IT.EX.SITEID" Mandatory="No" OrderNumber="2"/>
                <ItemRef ItemOID="IT.EX.SUBJID" Mandatory="No" OrderNumber="3"/>
                <ItemRef ItemOID="IT.EX.EPOCH" Mandatory="No" OrderNumber="4"/>
                <ItemRef ItemOID="IT.EX.EXYN" Mandatory="No" OrderNumber="5"/>
                <ItemRef ItemOID="IT.EX.EXCAT" Mandatory="No" OrderNumber="6"/>
                <ItemRef ItemOID="IT.EX.EXSCAT" Mandatory="No" OrderNumber="7"/>
                <ItemRef ItemOID="IT.EX.EXTRT" Mandatory="No" OrderNumber="8"/>
                <ItemRef ItemOID="IT.EX.EXREFID" Mandatory="No" OrderNumber="9"/>
                <ItemRef ItemOID="IT.EX.EXLOT" Mandatory="No" OrderNumber="10"/>
                <ItemRef ItemOID="IT.EX.EXFAST" Mandatory="No" OrderNumber="11"/>
                <ItemRef ItemOID="IT.EX.EXDOSFRM" Mandatory="No" OrderNumber="12"/>
                <ItemRef ItemOID="IT.EX.EXSTDAT" Mandatory="No" OrderNumber="13"/>
                <ItemRef ItemOID="IT.EX.EXSTTIM" Mandatory="No" OrderNumber="14"/>
                <ItemRef ItemOID="IT.EX.EXENDAT" Mandatory="No" OrderNumber="15"/>
                <ItemRef ItemOID="IT.EX.EXENTIM" Mandatory="No" OrderNumber="16"/>
                <ItemRef ItemOID="IT.EX.EXDSTXT" Mandatory="No" OrderNumber="17"/>
                <ItemRef ItemOID="IT.EX.EXDOSU" Mandatory="No" OrderNumber="18"/>
                <ItemRef ItemOID="IT.EX.EXDOSFRQ" Mandatory="No" OrderNumber="19"/>
                <ItemRef ItemOID="IT.EX.EXROUTE" Mandatory="No" OrderNumber="20"/>
                <ItemRef ItemOID="IT.EX.EXDOSRGM" Mandatory="No" OrderNumber="21"/>
                <ItemRef ItemOID="IT.EX.EXDOSADJ" Mandatory="No" OrderNumber="22"/>
                <ItemRef ItemOID="IT.EX.EXADJ" Mandatory="No" OrderNumber="23"/>
                <ItemRef ItemOID="IT.EX.EXITRPYN" Mandatory="No" OrderNumber="24"/>
                <ItemRef ItemOID="IT.EX.EXCINTD" Mandatory="No" OrderNumber="25"/>
                <ItemRef ItemOID="IT.EX.EXCINTDU" Mandatory="No" OrderNumber="26"/>
                <ItemRef ItemOID="IT.EX.EXLOC" Mandatory="No" OrderNumber="27"/>
                <ItemRef ItemOID="IT.EX.EXVAMT" Mandatory="No" OrderNumber="28"/>
                <ItemRef ItemOID="IT.EX.EXVAMTU" Mandatory="No" OrderNumber="29"/>
                <ItemRef ItemOID="IT.EX.EXFLRT" Mandatory="No" OrderNumber="30"/>
                <ItemRef ItemOID="IT.EX.EXFLRTU" Mandatory="No" OrderNumber="31"/>
                <ItemRef ItemOID="IT.EX.EXTPT" Mandatory="No" OrderNumber="32"/>
                <ItemRef ItemOID="IT.EX.EXTRTCMP" Mandatory="No" OrderNumber="33"/>
                <ItemRef ItemOID="IT.EX.EXLAT" Mandatory="No" OrderNumber="34"/>
                <ItemRef ItemOID="IT.EX.EXDIR" Mandatory="No" OrderNumber="35"/>
                <mdr:Class Name="INTERVENTIONS"/>
            </ItemGroupDef>
            <ItemGroupDef Domain="ML" Name="ML" OID="IGD.ML" Purpose="Data Collection"
                Repeating="No">
                <Description>
                    <TranslatedText xml:lang="en">Meal Data</TranslatedText>
                </Description>
                <ItemRef ItemOID="IT.ML.STUDYID" Mandatory="No" OrderNumber="1"/>
                <ItemRef ItemOID="IT.ML.SITEID" Mandatory="No" OrderNumber="2"/>
                <ItemRef ItemOID="IT.ML.SUBJID" Mandatory="No" OrderNumber="3"/>
                <ItemRef ItemOID="IT.ML.MLCAT" Mandatory="No" OrderNumber="4"/>
                <ItemRef ItemOID="IT.ML.MLSCAT" Mandatory="No" OrderNumber="5"/>
                <ItemRef ItemOID="IT.ML.MLYN" Mandatory="No" OrderNumber="6"/>
                <ItemRef ItemOID="IT.ML.MLSPID" Mandatory="No" OrderNumber="7"/>
                <ItemRef ItemOID="IT.ML.MLTRT" Mandatory="No" OrderNumber="8"/>
                <ItemRef ItemOID="IT.ML.MLPRESP" Mandatory="No" OrderNumber="9"/>
                <ItemRef ItemOID="IT.ML.MLOCCUR" Mandatory="No" OrderNumber="10"/>
                <ItemRef ItemOID="IT.ML.MLREASOC" Mandatory="No" OrderNumber="11"/>
                <ItemRef ItemOID="IT.ML.MLREAS" Mandatory="No" OrderNumber="12"/>
                <ItemRef ItemOID="IT.ML.MLCENO" Mandatory="No" OrderNumber="13"/>
                <ItemRef ItemOID="IT.ML.MLDOSE" Mandatory="No" OrderNumber="14"/>
                <ItemRef ItemOID="IT.ML.MLDSTXT" Mandatory="No" OrderNumber="15"/>
                <ItemRef ItemOID="IT.ML.MLDOSU" Mandatory="No" OrderNumber="16"/>
                <ItemRef ItemOID="IT.ML.MLSTDAT" Mandatory="No" OrderNumber="17"/>
                <ItemRef ItemOID="IT.ML.MLSTTIM" Mandatory="No" OrderNumber="18"/>
                <ItemRef ItemOID="IT.ML.MLENDAT" Mandatory="No" OrderNumber="19"/>
                <ItemRef ItemOID="IT.ML.MLENTIM" Mandatory="No" OrderNumber="20"/>
                <ItemRef ItemOID="IT.ML.MLDECOD" Mandatory="No" OrderNumber="21"/>
                <ItemRef ItemOID="IT.ML.MLMODIFY" Mandatory="No" OrderNumber="22"/>
                <mdr:Class Name="INTERVENTIONS"/>
            </ItemGroupDef>
            <ItemGroupDef Domain="PR" Name="PR" OID="IGD.PR" Purpose="Data Collection"
                Repeating="No">
                <Description>
                    <TranslatedText xml:lang="en">Procedures</TranslatedText>
                </Description>
                <ItemRef ItemOID="IT.PR.STUDYID" Mandatory="No" OrderNumber="1"/>
                <ItemRef ItemOID="IT.PR.SITEID" Mandatory="No" OrderNumber="2"/>
                <ItemRef ItemOID="IT.PR.SUBJID" Mandatory="No" OrderNumber="3"/>
                <ItemRef ItemOID="IT.PR.PRYN" Mandatory="No" OrderNumber="4"/>
                <ItemRef ItemOID="IT.PR.PRCAT" Mandatory="No" OrderNumber="5"/>
                <ItemRef ItemOID="IT.PR.PRSCAT" Mandatory="No" OrderNumber="6"/>
                <ItemRef ItemOID="IT.PR.PRSPID" Mandatory="No" OrderNumber="7"/>
                <ItemRef ItemOID="IT.PR.PRTRT" Mandatory="No" OrderNumber="8"/>
                <ItemRef ItemOID="IT.PR.PRDECOD" Mandatory="No" OrderNumber="9"/>
                <ItemRef ItemOID="IT.PR.PRMODIFY" Mandatory="No" OrderNumber="10"/>
                <ItemRef ItemOID="IT.PR.PRPRESP" Mandatory="No" OrderNumber="11"/>
                <ItemRef ItemOID="IT.PR.PROCCUR" Mandatory="No" OrderNumber="12"/>
                <ItemRef ItemOID="IT.PR.PRREASOC" Mandatory="No" OrderNumber="13"/>
                <ItemRef ItemOID="IT.PR.PRREASND" Mandatory="No" OrderNumber="14"/>
                <ItemRef ItemOID="IT.PR.PRPRIOR" Mandatory="No" OrderNumber="15"/>
                <ItemRef ItemOID="IT.PR.PRSTDAT" Mandatory="No" OrderNumber="16"/>
                <ItemRef ItemOID="IT.PR.PRONGO" Mandatory="No" OrderNumber="17"/>
                <ItemRef ItemOID="IT.PR.PRENDAT" Mandatory="No" OrderNumber="18"/>
                <ItemRef ItemOID="IT.PR.PRINDC" Mandatory="No" OrderNumber="19"/>
                <ItemRef ItemOID="IT.PR.PRAENO" Mandatory="No" OrderNumber="20"/>
                <ItemRef ItemOID="IT.PR.PRMHNO" Mandatory="No" OrderNumber="21"/>
                <ItemRef ItemOID="IT.PR.PRDSTXT" Mandatory="No" OrderNumber="22"/>
                <ItemRef ItemOID="IT.PR.PRDOSU" Mandatory="No" OrderNumber="23"/>
                <ItemRef ItemOID="IT.PR.PRDOSFRQ" Mandatory="No" OrderNumber="24"/>
                <ItemRef ItemOID="IT.PR.PRROUTE" Mandatory="No" OrderNumber="25"/>
                <ItemRef ItemOID="IT.PR.PRLOC" Mandatory="No" OrderNumber="26"/>
                <ItemRef ItemOID="IT.PR.PRLAT" Mandatory="No" OrderNumber="27"/>
                <ItemRef ItemOID="IT.PR.PRDIR" Mandatory="No" OrderNumber="28"/>
                <ItemRef ItemOID="IT.PR.PRPORTOT" Mandatory="No" OrderNumber="29"/>
                <ItemRef ItemOID="IT.PR.PRFAST" Mandatory="No" OrderNumber="30"/>
                <ItemRef ItemOID="IT.PR.PRDOSRGM" Mandatory="No" OrderNumber="31"/>
                <ItemRef ItemOID="IT.PR.PRDOSADJ" Mandatory="No" OrderNumber="32"/>
                <ItemRef ItemOID="IT.PR.PRADJ" Mandatory="No" OrderNumber="33"/>
                <ItemRef ItemOID="IT.PR.PRTRTCMP" Mandatory="No" OrderNumber="34"/>
                <ItemRef ItemOID="IT.PR.PRITRPYN" Mandatory="No" OrderNumber="35"/>
                <ItemRef ItemOID="IT.PR.PRITRPRS" Mandatory="No" OrderNumber="36"/>
                <ItemRef ItemOID="IT.PR.PRCINTD" Mandatory="No" OrderNumber="37"/>
                <ItemRef ItemOID="IT.PR.PRCINTDU" Mandatory="No" OrderNumber="38"/>
                <ItemRef ItemOID="IT.PR.PRLLT" Mandatory="No" OrderNumber="39"/>
                <ItemRef ItemOID="IT.PR.PRLLTCD" Mandatory="No" OrderNumber="40"/>
                <ItemRef ItemOID="IT.PR.PRPTCD" Mandatory="No" OrderNumber="41"/>
                <ItemRef ItemOID="IT.PR.PRHLT" Mandatory="No" OrderNumber="42"/>
                <ItemRef ItemOID="IT.PR.PRHLTCD" Mandatory="No" OrderNumber="43"/>
                <ItemRef ItemOID="IT.PR.PRHLGT" Mandatory="No" OrderNumber="44"/>
                <ItemRef ItemOID="IT.PR.PRHLGTCD" Mandatory="No" OrderNumber="45"/>
                <ItemRef ItemOID="IT.PR.PRSOC" Mandatory="No" OrderNumber="46"/>
                <ItemRef ItemOID="IT.PR.PRSOCCD" Mandatory="No" OrderNumber="47"/>
                <mdr:Class Name="INTERVENTIONS"/>
            </ItemGroupDef>
            <ItemGroupDef Domain="SU" Name="SU" OID="IGD.SU" Purpose="Data Collection"
                Repeating="No">
                <Description>
                    <TranslatedText xml:lang="en">Substance Use</TranslatedText>
                </Description>
                <ItemRef ItemOID="IT.SU.STUDYID" Mandatory="No" OrderNumber="1"/>
                <ItemRef ItemOID="IT.SU.SITEID" Mandatory="No" OrderNumber="2"/>
                <ItemRef ItemOID="IT.SU.SUBJID" Mandatory="No" OrderNumber="3"/>
                <ItemRef ItemOID="IT.SU.SUTRT" Mandatory="No" OrderNumber="4"/>
                <ItemRef ItemOID="IT.SU.SUCAT" Mandatory="No" OrderNumber="5"/>
                <ItemRef ItemOID="IT.SU.SUSCAT" Mandatory="No" OrderNumber="6"/>
                <ItemRef ItemOID="IT.SU.SUPRESP" Mandatory="No" OrderNumber="7"/>
                <ItemRef ItemOID="IT.SU.SUYN" Mandatory="No" OrderNumber="8"/>
                <ItemRef ItemOID="IT.SU.SUNCF" Mandatory="No" OrderNumber="9"/>
                <ItemRef ItemOID="IT.SU.SUSPID" Mandatory="No" OrderNumber="10"/>
                <ItemRef ItemOID="IT.SU.SUREASND" Mandatory="No" OrderNumber="11"/>
                <ItemRef ItemOID="IT.SU.SUDSTXT" Mandatory="No" OrderNumber="12"/>
                <ItemRef ItemOID="IT.SU.SUDOSFRQ" Mandatory="No" OrderNumber="13"/>
                <ItemRef ItemOID="IT.SU.SUSTDAT" Mandatory="No" OrderNumber="14"/>
                <ItemRef ItemOID="IT.SU.SUENDAT" Mandatory="No" OrderNumber="15"/>
                <ItemRef ItemOID="IT.SU.SUCDUR" Mandatory="No" OrderNumber="16"/>
                <ItemRef ItemOID="IT.SU.SUCDURU" Mandatory="No" OrderNumber="17"/>
                <ItemRef ItemOID="IT.SU.SUMODIFY" Mandatory="No" OrderNumber="18"/>
                <ItemRef ItemOID="IT.SU.SUDECOD" Mandatory="No" OrderNumber="19"/>
                <mdr:Class Name="INTERVENTIONS"/>
            </ItemGroupDef>
            <ItemGroupDef Domain="AE" Name="AE" OID="IGD.AE" Purpose="Data Collection"
                Repeating="No">
                <Description>
                    <TranslatedText xml:lang="en">Adverse Events</TranslatedText>
                </Description>
                <ItemRef ItemOID="IT.AE.STUDYID" Mandatory="No" OrderNumber="1"/>
                <ItemRef ItemOID="IT.AE.SITEID" Mandatory="No" OrderNumber="2"/>
                <ItemRef ItemOID="IT.AE.SUBJID" Mandatory="No" OrderNumber="3"/>
                <ItemRef ItemOID="IT.AE.AEYN" Mandatory="No" OrderNumber="4"/>
                <ItemRef ItemOID="IT.AE.AECAT" Mandatory="No" OrderNumber="5"/>
                <ItemRef ItemOID="IT.AE.AESCAT" Mandatory="No" OrderNumber="6"/>
                <ItemRef ItemOID="IT.AE.AESPID" Mandatory="No" OrderNumber="7"/>
                <ItemRef ItemOID="IT.AE.AETERM" Mandatory="No" OrderNumber="8"/>
                <ItemRef ItemOID="IT.AE.AEOCCUR" Mandatory="No" OrderNumber="9"/>
                <ItemRef ItemOID="IT.AE.AEPRESP" Mandatory="No" OrderNumber="10"/>
                <ItemRef ItemOID="IT.AE.AESTDAT" Mandatory="No" OrderNumber="11"/>
                <ItemRef ItemOID="IT.AE.AESTTIM" Mandatory="No" OrderNumber="12"/>
                <ItemRef ItemOID="IT.AE.AELOC" Mandatory="No" OrderNumber="13"/>
                <ItemRef ItemOID="IT.AE.AELAT" Mandatory="No" OrderNumber="14"/>
                <ItemRef ItemOID="IT.AE.AEDIR" Mandatory="No" OrderNumber="15"/>
                <ItemRef ItemOID="IT.AE.AEPORTOT" Mandatory="No" OrderNumber="16"/>
                <ItemRef ItemOID="IT.AE.AEONGO" Mandatory="No" OrderNumber="17"/>
                <ItemRef ItemOID="IT.AE.AEENDAT" Mandatory="No" OrderNumber="18"/>
                <ItemRef ItemOID="IT.AE.AEENTIM" Mandatory="No" OrderNumber="19"/>
                <ItemRef ItemOID="IT.AE.AESEV" Mandatory="No" OrderNumber="20"/>
                <ItemRef ItemOID="IT.AE.AETOXGR" Mandatory="No" OrderNumber="21"/>
                <ItemRef ItemOID="IT.AE.AESER" Mandatory="No" OrderNumber="22"/>
                <ItemRef ItemOID="IT.AE.AESDTH" Mandatory="No" OrderNumber="23"/>
                <ItemRef ItemOID="IT.AE.DTHDAT" Mandatory="No" OrderNumber="24"/>
                <ItemRef ItemOID="IT.AE.AESLIFE" Mandatory="No" OrderNumber="25"/>
                <ItemRef ItemOID="IT.AE.AESHOSP" Mandatory="No" OrderNumber="26"/>
                <ItemRef ItemOID="IT.AE.AESDISAB" Mandatory="No" OrderNumber="27"/>
                <ItemRef ItemOID="IT.AE.AESCONG" Mandatory="No" OrderNumber="28"/>
                <ItemRef ItemOID="IT.AE.AESINTV" Mandatory="No" OrderNumber="29"/>
                <ItemRef ItemOID="IT.AE.AESMIE" Mandatory="No" OrderNumber="30"/>
                <ItemRef ItemOID="IT.AE.AESCAN" Mandatory="No" OrderNumber="31"/>
                <ItemRef ItemOID="IT.AE.AESOD" Mandatory="No" OrderNumber="32"/>
                <ItemRef ItemOID="IT.AE.AEREL" Mandatory="No" OrderNumber="33"/>
                <ItemRef ItemOID="IT.AE.AEACN" Mandatory="No" OrderNumber="34"/>
                <ItemRef ItemOID="IT.AE.AEACNDEV" Mandatory="No" OrderNumber="35"/>
                <ItemRef ItemOID="IT.AE.AEACNOTH" Mandatory="No" OrderNumber="36"/>
                <ItemRef ItemOID="IT.AE.AEOUT" Mandatory="No" OrderNumber="37"/>
                <ItemRef ItemOID="IT.AE.AEDIS" Mandatory="No" OrderNumber="38"/>
                <ItemRef ItemOID="IT.AE.AERLNSYN" Mandatory="No" OrderNumber="39"/>
                <ItemRef ItemOID="IT.AE.AERELNST" Mandatory="No" OrderNumber="40"/>
                <ItemRef ItemOID="IT.AE.AESI" Mandatory="No" OrderNumber="41"/>
                <ItemRef ItemOID="IT.AE.AEPATT" Mandatory="No" OrderNumber="42"/>
                <ItemRef ItemOID="IT.AE.AECONTRT" Mandatory="No" OrderNumber="43"/>
                <ItemRef ItemOID="IT.AE.AEMODIFY" Mandatory="No" OrderNumber="44"/>
                <ItemRef ItemOID="IT.AE.AEDECOD" Mandatory="No" OrderNumber="45"/>
                <ItemRef ItemOID="IT.AE.AELLT" Mandatory="No" OrderNumber="46"/>
                <ItemRef ItemOID="IT.AE.AELLTCD" Mandatory="No" OrderNumber="47"/>
                <ItemRef ItemOID="IT.AE.AEPTCD" Mandatory="No" OrderNumber="48"/>
                <ItemRef ItemOID="IT.AE.AEHLT" Mandatory="No" OrderNumber="49"/>
                <ItemRef ItemOID="IT.AE.AEHLTCD" Mandatory="No" OrderNumber="50"/>
                <ItemRef ItemOID="IT.AE.AEHLGT" Mandatory="No" OrderNumber="51"/>
                <ItemRef ItemOID="IT.AE.AEHLGTCD" Mandatory="No" OrderNumber="52"/>
                <ItemRef ItemOID="IT.AE.AESOC" Mandatory="No" OrderNumber="53"/>
                <ItemRef ItemOID="IT.AE.AESOCCD" Mandatory="No" OrderNumber="54"/>
                <ItemRef ItemOID="IT.AE.AEACNOYN" Mandatory="No" OrderNumber="55"/>
                <mdr:Class Name="EVENTS"/>
            </ItemGroupDef>
            <ItemGroupDef Domain="CE" Name="CE" OID="IGD.CE" Purpose="Data Collection"
                Repeating="No">
                <Description>
                    <TranslatedText xml:lang="en">Clinical Events</TranslatedText>
                </Description>
                <ItemRef ItemOID="IT.CE.STUDYID" Mandatory="No" OrderNumber="1"/>
                <ItemRef ItemOID="IT.CE.SITEID" Mandatory="No" OrderNumber="2"/>
                <ItemRef ItemOID="IT.CE.SUBJID" Mandatory="No" OrderNumber="3"/>
                <ItemRef ItemOID="IT.CE.CECAT" Mandatory="No" OrderNumber="4"/>
                <ItemRef ItemOID="IT.CE.CESCAT" Mandatory="No" OrderNumber="5"/>
                <ItemRef ItemOID="IT.CE.CEYN" Mandatory="No" OrderNumber="6"/>
                <ItemRef ItemOID="IT.CE.CESPID" Mandatory="No" OrderNumber="7"/>
                <ItemRef ItemOID="IT.CE.CETERM" Mandatory="No" OrderNumber="8"/>
                <ItemRef ItemOID="IT.CE.CEOCCUR" Mandatory="No" OrderNumber="9"/>
                <ItemRef ItemOID="IT.CE.CEPRESP" Mandatory="No" OrderNumber="10"/>
                <ItemRef ItemOID="IT.CE.CESTDAT" Mandatory="No" OrderNumber="11"/>
                <ItemRef ItemOID="IT.CE.CESTTIM" Mandatory="No" OrderNumber="12"/>
                <ItemRef ItemOID="IT.CE.CELOC" Mandatory="No" OrderNumber="13"/>
                <ItemRef ItemOID="IT.CE.CELAT" Mandatory="No" OrderNumber="14"/>
                <ItemRef ItemOID="IT.CE.CEDIR" Mandatory="No" OrderNumber="15"/>
                <ItemRef ItemOID="IT.CE.CEPORTOT" Mandatory="No" OrderNumber="16"/>
                <ItemRef ItemOID="IT.CE.CEONGO" Mandatory="No" OrderNumber="17"/>
                <ItemRef ItemOID="IT.CE.CEENDAT" Mandatory="No" OrderNumber="18"/>
                <ItemRef ItemOID="IT.CE.CEENTIM" Mandatory="No" OrderNumber="19"/>
                <ItemRef ItemOID="IT.CE.CESEV" Mandatory="No" OrderNumber="20"/>
                <ItemRef ItemOID="IT.CE.CETOX" Mandatory="No" OrderNumber="21"/>
                <ItemRef ItemOID="IT.CE.CETOXGR" Mandatory="No" OrderNumber="22"/>
                <ItemRef ItemOID="IT.CE.CEMODIFY" Mandatory="No" OrderNumber="23"/>
                <ItemRef ItemOID="IT.CE.CEDECOD" Mandatory="No" OrderNumber="24"/>
                <ItemRef ItemOID="IT.CE.CELLT" Mandatory="No" OrderNumber="25"/>
                <ItemRef ItemOID="IT.CE.CELLTCD" Mandatory="No" OrderNumber="26"/>
                <ItemRef ItemOID="IT.CE.CEPTCD" Mandatory="No" OrderNumber="27"/>
                <ItemRef ItemOID="IT.CE.CEHLT" Mandatory="No" OrderNumber="28"/>
                <ItemRef ItemOID="IT.CE.CEHLTCD" Mandatory="No" OrderNumber="29"/>
                <ItemRef ItemOID="IT.CE.CEHLGT" Mandatory="No" OrderNumber="30"/>
                <ItemRef ItemOID="IT.CE.CEHLGTCD" Mandatory="No" OrderNumber="31"/>
                <ItemRef ItemOID="IT.CE.CESOC" Mandatory="No" OrderNumber="32"/>
                <ItemRef ItemOID="IT.CE.CESOCCD" Mandatory="No" OrderNumber="33"/>
                <mdr:Class Name="EVENTS"/>
            </ItemGroupDef>
            <ItemGroupDef Domain="DS" Name="DS" OID="IGD.DS" Purpose="Data Collection"
                Repeating="No">
                <Description>
                    <TranslatedText xml:lang="en">Disposition</TranslatedText>
                </Description>
                <mdr:Class Name="EVENTS"/>
            </ItemGroupDef>
            <ItemGroupDef Domain="DV" Name="DV" OID="IGD.DV" Purpose="Data Collection"
                Repeating="No">
                <Description>
                    <TranslatedText xml:lang="en">Protocol Deviations</TranslatedText>
                </Description>
                <ItemRef ItemOID="IT.DV.STUDYID" Mandatory="No" OrderNumber="1"/>
                <ItemRef ItemOID="IT.DV.SITEID" Mandatory="No" OrderNumber="2"/>
                <ItemRef ItemOID="IT.DV.SUBJID" Mandatory="No" OrderNumber="3"/>
                <ItemRef ItemOID="IT.DV.DVCAT" Mandatory="No" OrderNumber="4"/>
                <ItemRef ItemOID="IT.DV.DVSCAT" Mandatory="No" OrderNumber="5"/>
                <ItemRef ItemOID="IT.DV.DVYN" Mandatory="No" OrderNumber="6"/>
                <ItemRef ItemOID="IT.DV.DVDECOD" Mandatory="No" OrderNumber="7"/>
                <ItemRef ItemOID="IT.DV.DVTERM" Mandatory="No" OrderNumber="8"/>
                <ItemRef ItemOID="IT.DV.DVSTDAT" Mandatory="No" OrderNumber="9"/>
                <ItemRef ItemOID="IT.DV.DVSTTIM" Mandatory="No" OrderNumber="10"/>
                <ItemRef ItemOID="IT.DV.DVENDAT" Mandatory="No" OrderNumber="11"/>
                <ItemRef ItemOID="IT.DV.DVENTIM" Mandatory="No" OrderNumber="12"/>
                <ItemRef ItemOID="IT.DV.DVSPID" Mandatory="No" OrderNumber="13"/>
                <mdr:Class Name="EVENTS"/>
            </ItemGroupDef>
            <ItemGroupDef Domain="HO" Name="HO" OID="IGD.HO" Purpose="Data Collection"
                Repeating="No">
                <Description>
                    <TranslatedText xml:lang="en">Healthcare Encounters</TranslatedText>
                </Description>
                <ItemRef ItemOID="IT.HO.STUDYID" Mandatory="No" OrderNumber="1"/>
                <ItemRef ItemOID="IT.HO.SITEID" Mandatory="No" OrderNumber="2"/>
                <ItemRef ItemOID="IT.HO.SUBJID" Mandatory="No" OrderNumber="3"/>
                <ItemRef ItemOID="IT.HO.HOYN" Mandatory="No" OrderNumber="4"/>
                <ItemRef ItemOID="IT.HO.HOCAT" Mandatory="No" OrderNumber="5"/>
                <ItemRef ItemOID="IT.HO.HOSCAT" Mandatory="No" OrderNumber="6"/>
                <ItemRef ItemOID="IT.HO.HOOCCUR" Mandatory="No" OrderNumber="7"/>
                <ItemRef ItemOID="IT.HO.HOPRESP" Mandatory="No" OrderNumber="8"/>
                <ItemRef ItemOID="IT.HO.HOREASND" Mandatory="No" OrderNumber="9"/>
                <ItemRef ItemOID="IT.HO.HOSPID" Mandatory="No" OrderNumber="10"/>
                <ItemRef ItemOID="IT.HO.HOTERM" Mandatory="No" OrderNumber="11"/>
                <ItemRef ItemOID="IT.HO.HODECOD" Mandatory="No" OrderNumber="12"/>
                <ItemRef ItemOID="IT.HO.HOSTDAT" Mandatory="No" OrderNumber="13"/>
                <ItemRef ItemOID="IT.HO.HOSTTIM" Mandatory="No" OrderNumber="14"/>
                <ItemRef ItemOID="IT.HO.HOENDAT" Mandatory="No" OrderNumber="15"/>
                <ItemRef ItemOID="IT.HO.HOENTIM" Mandatory="No" OrderNumber="16"/>
                <ItemRef ItemOID="IT.HO.HOCDUR" Mandatory="No" OrderNumber="17"/>
                <ItemRef ItemOID="IT.HO.HOCDURU" Mandatory="No" OrderNumber="18"/>
                <ItemRef ItemOID="IT.HO.HOONGO" Mandatory="No" OrderNumber="19"/>
                <ItemRef ItemOID="IT.HO.HOREAS" Mandatory="No" OrderNumber="20"/>
                <ItemRef ItemOID="IT.HO.HOAENO" Mandatory="No" OrderNumber="21"/>
                <mdr:Class Name="EVENTS"/>
            </ItemGroupDef>
            <ItemGroupDef Domain="MH" Name="MH" OID="IGD.MH" Purpose="Data Collection"
                Repeating="No">
                <Description>
                    <TranslatedText xml:lang="en">Medical History</TranslatedText>
                </Description>
                <ItemRef ItemOID="IT.MH.STUDYID" Mandatory="No" OrderNumber="1"/>
                <ItemRef ItemOID="IT.MH.SITEID" Mandatory="No" OrderNumber="2"/>
                <ItemRef ItemOID="IT.MH.SUBJID" Mandatory="No" OrderNumber="3"/>
                <ItemRef ItemOID="IT.MH.MHYN" Mandatory="No" OrderNumber="4"/>
                <ItemRef ItemOID="IT.MH.MHCAT" Mandatory="No" OrderNumber="5"/>
                <ItemRef ItemOID="IT.MH.MHSCAT" Mandatory="No" OrderNumber="6"/>
                <ItemRef ItemOID="IT.MH.MHDAT" Mandatory="No" OrderNumber="7"/>
                <ItemRef ItemOID="IT.MH.MHSPID" Mandatory="No" OrderNumber="8"/>
                <ItemRef ItemOID="IT.MH.MHEVDTYP" Mandatory="No" OrderNumber="9"/>
                <ItemRef ItemOID="IT.MH.MHTERM" Mandatory="No" OrderNumber="10"/>
                <ItemRef ItemOID="IT.MH.MHOCCUR" Mandatory="No" OrderNumber="11"/>
                <ItemRef ItemOID="IT.MH.MHPRESP" Mandatory="No" OrderNumber="12"/>
                <ItemRef ItemOID="IT.MH.MHPRIOR" Mandatory="No" OrderNumber="13"/>
                <ItemRef ItemOID="IT.MH.MHONGO" Mandatory="No" OrderNumber="14"/>
                <ItemRef ItemOID="IT.MH.MHCTRL" Mandatory="No" OrderNumber="15"/>
                <ItemRef ItemOID="IT.MH.MHSTDAT" Mandatory="No" OrderNumber="16"/>
                <ItemRef ItemOID="IT.MH.MHENDAT" Mandatory="No" OrderNumber="17"/>
                <ItemRef ItemOID="IT.MH.MHLOC" Mandatory="No" OrderNumber="18"/>
                <ItemRef ItemOID="IT.MH.MHLAT" Mandatory="No" OrderNumber="19"/>
                <ItemRef ItemOID="IT.MH.MHDIR" Mandatory="No" OrderNumber="20"/>
                <ItemRef ItemOID="IT.MH.MHPORTOT" Mandatory="No" OrderNumber="21"/>
                <ItemRef ItemOID="IT.MH.MHMODIFY" Mandatory="No" OrderNumber="22"/>
                <ItemRef ItemOID="IT.MH.MHDECOD" Mandatory="No" OrderNumber="23"/>
                <ItemRef ItemOID="IT.MH.MHLLT" Mandatory="No" OrderNumber="24"/>
                <ItemRef ItemOID="IT.MH.MHLLTCD" Mandatory="No" OrderNumber="25"/>
                <ItemRef ItemOID="IT.MH.MHPTCD" Mandatory="No" OrderNumber="26"/>
                <ItemRef ItemOID="IT.MH.MHHLT" Mandatory="No" OrderNumber="27"/>
                <ItemRef ItemOID="IT.MH.MHHLTCD" Mandatory="No" OrderNumber="28"/>
                <ItemRef ItemOID="IT.MH.MHHLGT" Mandatory="No" OrderNumber="29"/>
                <ItemRef ItemOID="IT.MH.MHHLGTCD" Mandatory="No" OrderNumber="30"/>
                <ItemRef ItemOID="IT.MH.MHSOC" Mandatory="No" OrderNumber="31"/>
                <ItemRef ItemOID="IT.MH.MHSOCCD" Mandatory="No" OrderNumber="32"/>
                <mdr:Class Name="EVENTS"/>
            </ItemGroupDef>
            <ItemGroupDef Domain="FA" Name="FA" OID="IGD.FA" Purpose="Data Collection"
                Repeating="No">
                <Description>
                    <TranslatedText xml:lang="en">Findings About Events or
                        Interventions</TranslatedText>
                </Description>
                <ItemRef ItemOID="IT.FA.STUDYID" Mandatory="No" OrderNumber="1"/>
                <ItemRef ItemOID="IT.FA.SITEID" Mandatory="No" OrderNumber="2"/>
                <ItemRef ItemOID="IT.FA.SUBJID" Mandatory="No" OrderNumber="3"/>
                <ItemRef ItemOID="IT.FA.VISIT" Mandatory="No" OrderNumber="4"/>
                <ItemRef ItemOID="IT.FA.VISDAT" Mandatory="No" OrderNumber="5"/>
                <ItemRef ItemOID="IT.FA.FAOBJ" Mandatory="No" OrderNumber="6"/>
                <ItemRef ItemOID="IT.FA.FAYN" Mandatory="No" OrderNumber="7"/>
                <ItemRef ItemOID="IT.FA.FAPERF" Mandatory="No" OrderNumber="8"/>
                <ItemRef ItemOID="IT.FA.FADAT" Mandatory="No" OrderNumber="9"/>
                <ItemRef ItemOID="IT.FA.FATIM" Mandatory="No" OrderNumber="10"/>
                <ItemRef ItemOID="IT.FA.FATEST" Mandatory="No" OrderNumber="11"/>
                <ItemRef ItemOID="IT.FA.FATSTDTL" Mandatory="No" OrderNumber="12"/>
                <ItemRef ItemOID="IT.FA.FACAT" Mandatory="No" OrderNumber="13"/>
                <ItemRef ItemOID="IT.FA.FASCAT" Mandatory="No" OrderNumber="14"/>
                <ItemRef ItemOID="IT.FA.FAPOS" Mandatory="No" OrderNumber="15"/>
                <ItemRef ItemOID="IT.FA.FAORRES" Mandatory="No" OrderNumber="16"/>
                <ItemRef ItemOID="IT.FA.FAORRESU" Mandatory="No" OrderNumber="17"/>
                <ItemRef ItemOID="IT.FA.FAORNRLO" Mandatory="No" OrderNumber="18"/>
                <ItemRef ItemOID="IT.FA.FAORNRHI" Mandatory="No" OrderNumber="19"/>
                <ItemRef ItemOID="IT.FA.FANRIND" Mandatory="No" OrderNumber="20"/>
                <ItemRef ItemOID="IT.FA.FASTAT" Mandatory="No" OrderNumber="21"/>
                <ItemRef ItemOID="IT.FA.FAREASND" Mandatory="No" OrderNumber="22"/>
                <ItemRef ItemOID="IT.FA.FASPEC" Mandatory="No" OrderNumber="23"/>
                <ItemRef ItemOID="IT.FA.FASPCCND" Mandatory="No" OrderNumber="24"/>
                <ItemRef ItemOID="IT.FA.FALOC" Mandatory="No" OrderNumber="25"/>
                <ItemRef ItemOID="IT.FA.FALAT" Mandatory="No" OrderNumber="26"/>
                <ItemRef ItemOID="IT.FA.FADIR" Mandatory="No" OrderNumber="27"/>
                <ItemRef ItemOID="IT.FA.FAPORTOT" Mandatory="No" OrderNumber="28"/>
                <ItemRef ItemOID="IT.FA.FAMETHOD" Mandatory="No" OrderNumber="29"/>
                <ItemRef ItemOID="IT.FA.FALEAD" Mandatory="No" OrderNumber="30"/>
                <ItemRef ItemOID="IT.FA.FAFAST" Mandatory="No" OrderNumber="31"/>
                <ItemRef ItemOID="IT.FA.FAEVAL" Mandatory="No" OrderNumber="32"/>
                <ItemRef ItemOID="IT.FA.FAEVALID" Mandatory="No" OrderNumber="33"/>
                <ItemRef ItemOID="IT.FA.FACLSIG" Mandatory="No" OrderNumber="34"/>
                <mdr:Class Name="FINDINGS ABOUT"/>
            </ItemGroupDef>
            <ItemGroupDef Domain="SR" Name="SR" OID="IGD.SR" Purpose="Data Collection"
                Repeating="No">
                <Description>
                    <TranslatedText xml:lang="en">Skin Response</TranslatedText>
                </Description>
                <ItemRef ItemOID="IT.SR.STUDYID" Mandatory="No" OrderNumber="1"/>
                <ItemRef ItemOID="IT.SR.SITEID" Mandatory="No" OrderNumber="2"/>
                <ItemRef ItemOID="IT.SR.SUBJID" Mandatory="No" OrderNumber="3"/>
                <ItemRef ItemOID="IT.SR.VISIT" Mandatory="No" OrderNumber="4"/>
                <ItemRef ItemOID="IT.SR.VISDAT" Mandatory="No" OrderNumber="5"/>
                <ItemRef ItemOID="IT.SR.SRPERF" Mandatory="No" OrderNumber="6"/>
                <ItemRef ItemOID="IT.SR.SRREASND" Mandatory="No" OrderNumber="7"/>
                <ItemRef ItemOID="IT.SR.SRCAT" Mandatory="No" OrderNumber="8"/>
                <ItemRef ItemOID="IT.SR.SRSCAT" Mandatory="No" OrderNumber="9"/>
                <ItemRef ItemOID="IT.SR.SRSPID" Mandatory="No" OrderNumber="10"/>
                <ItemRef ItemOID="IT.SR.SROBJ" Mandatory="No" OrderNumber="11"/>
                <ItemRef ItemOID="IT.SR.SRRFTDAT" Mandatory="No" OrderNumber="12"/>
                <ItemRef ItemOID="IT.SR.SRRFTTIM" Mandatory="No" OrderNumber="13"/>
                <ItemRef ItemOID="IT.SR.SRLOC" Mandatory="No" OrderNumber="14"/>
                <ItemRef ItemOID="IT.SR.SRLAT" Mandatory="No" OrderNumber="15"/>
                <ItemRef ItemOID="IT.SR.SRTEST" Mandatory="No" OrderNumber="16"/>
                <ItemRef ItemOID="IT.SR.SRTPT" Mandatory="No" OrderNumber="17"/>
                <ItemRef ItemOID="IT.SR.SRDAT" Mandatory="No" OrderNumber="18"/>
                <ItemRef ItemOID="IT.SR.SRTIM" Mandatory="No" OrderNumber="19"/>
                <ItemRef ItemOID="IT.SR.SRDIR" Mandatory="No" OrderNumber="20"/>
                <ItemRef ItemOID="IT.SR.SREVAL" Mandatory="No" OrderNumber="21"/>
                <ItemRef ItemOID="IT.SR.SREVALID" Mandatory="No" OrderNumber="22"/>
                <ItemRef ItemOID="IT.SR.SRORRES" Mandatory="No" OrderNumber="23"/>
                <ItemRef ItemOID="IT.SR.SRORRESU" Mandatory="No" OrderNumber="24"/>
                <ItemRef ItemOID="IT.SR.SRNRIND" Mandatory="No" OrderNumber="25"/>
                <ItemRef ItemOID="IT.SR.SRCLSIG" Mandatory="No" OrderNumber="26"/>
                <mdr:Class Name="FINDINGS ABOUT"/>
            </ItemGroupDef>
            <ItemGroupDef Domain="DA" Name="DA" OID="IGD.DA" Purpose="Data Collection"
                Repeating="No">
                <Description>
                    <TranslatedText xml:lang="en">Drug Accountability</TranslatedText>
                </Description>
                <ItemRef ItemOID="IT.DA.STUDYID" Mandatory="No" OrderNumber="1"/>
                <ItemRef ItemOID="IT.DA.SITEID" Mandatory="No" OrderNumber="2"/>
                <ItemRef ItemOID="IT.DA.SUBJID" Mandatory="No" OrderNumber="3"/>
                <ItemRef ItemOID="IT.DA.VISIT" Mandatory="No" OrderNumber="4"/>
                <ItemRef ItemOID="IT.DA.VISDAT" Mandatory="No" OrderNumber="5"/>
                <ItemRef ItemOID="IT.DA.DAPERF" Mandatory="No" OrderNumber="6"/>
                <ItemRef ItemOID="IT.DA.DACAT" Mandatory="No" OrderNumber="7"/>
                <ItemRef ItemOID="IT.DA.DASCAT" Mandatory="No" OrderNumber="8"/>
                <ItemRef ItemOID="IT.DA.DADAT" Mandatory="No" OrderNumber="9"/>
                <ItemRef ItemOID="IT.DA.DAREFID" Mandatory="No" OrderNumber="10"/>
                <ItemRef ItemOID="IT.DA.DATEST" Mandatory="No" OrderNumber="11"/>
                <ItemRef ItemOID="IT.DA.DAORRES" Mandatory="No" OrderNumber="12"/>
                <ItemRef ItemOID="IT.DA.DAORRESU" Mandatory="No" OrderNumber="13"/>
                <mdr:Class Name="FINDINGS"/>
            </ItemGroupDef>
            <ItemGroupDef Domain="DD" Name="DD" OID="IGD.DD" Purpose="Data Collection"
                Repeating="No">
                <Description>
                    <TranslatedText xml:lang="en">Death Details</TranslatedText>
                </Description>
                <ItemRef ItemOID="IT.DD.STUDYID" Mandatory="No" OrderNumber="1"/>
                <ItemRef ItemOID="IT.DD.SITEID" Mandatory="No" OrderNumber="2"/>
                <ItemRef ItemOID="IT.DD.SUBJID" Mandatory="No" OrderNumber="3"/>
                <ItemRef ItemOID="IT.DD.VISIT" Mandatory="No" OrderNumber="4"/>
                <ItemRef ItemOID="IT.DD.VISDAT" Mandatory="No" OrderNumber="5"/>
                <ItemRef ItemOID="IT.DD.DDCAT" Mandatory="No" OrderNumber="6"/>
                <ItemRef ItemOID="IT.DD.DDSCAT" Mandatory="No" OrderNumber="7"/>
                <ItemRef ItemOID="IT.DD.DDYN" Mandatory="No" OrderNumber="8"/>
                <ItemRef ItemOID="IT.DD.DDDAT" Mandatory="No" OrderNumber="9"/>
                <ItemRef ItemOID="IT.DD.DDSPID" Mandatory="No" OrderNumber="10"/>
                <ItemRef ItemOID="IT.DD.DTHDAT" Mandatory="No" OrderNumber="11"/>
                <ItemRef ItemOID="IT.DD.DDTEST" Mandatory="No" OrderNumber="12"/>
                <ItemRef ItemOID="IT.DD.DDORRES" Mandatory="No" OrderNumber="13"/>
                <ItemRef ItemOID="IT.DD.DDEVAL" Mandatory="No" OrderNumber="14"/>
                <mdr:Class Name="FINDINGS"/>
            </ItemGroupDef>
            <ItemGroupDef Domain="EG" Name="EG" OID="IGD.EG" Purpose="Data Collection"
                Repeating="No">
                <Description>
                    <TranslatedText xml:lang="en">ECG Test Results</TranslatedText>
                </Description>
                <mdr:Class Name="FINDINGS"/>
            </ItemGroupDef>
            <ItemGroupDef Domain="IE" Name="IE" OID="IGD.IE" Purpose="Data Collection"
                Repeating="No">
                <Description>
                    <TranslatedText xml:lang="en">Inclusion/Exclusion Criteria Not
                        Met</TranslatedText>
                </Description>
                <ItemRef ItemOID="IT.IE.STUDYID" Mandatory="No" OrderNumber="1"/>
                <ItemRef ItemOID="IT.IE.SITEID" Mandatory="No" OrderNumber="2"/>
                <ItemRef ItemOID="IT.IE.SUBJID" Mandatory="No" OrderNumber="3"/>
                <ItemRef ItemOID="IT.IE.VISIT" Mandatory="No" OrderNumber="4"/>
                <ItemRef ItemOID="IT.IE.VISDAT" Mandatory="No" OrderNumber="5"/>
                <ItemRef ItemOID="IT.IE.IEYN" Mandatory="No" OrderNumber="6"/>
                <ItemRef ItemOID="IT.IE.IEDAT" Mandatory="No" OrderNumber="7"/>
                <ItemRef ItemOID="IT.IE.IECAT" Mandatory="No" OrderNumber="8"/>
                <ItemRef ItemOID="IT.IE.IESCAT" Mandatory="No" OrderNumber="9"/>
                <ItemRef ItemOID="IT.IE.IETESTCD" Mandatory="No" OrderNumber="10"/>
                <ItemRef ItemOID="IT.IE.IETEST" Mandatory="No" OrderNumber="11"/>
                <ItemRef ItemOID="IT.IE.IEORRES" Mandatory="No" OrderNumber="12"/>
                <mdr:Class Name="FINDINGS"/>
            </ItemGroupDef>
            <ItemGroupDef Domain="LB" Name="LB" OID="IGD.LB" Purpose="Data Collection"
                Repeating="No">
                <Description>
                    <TranslatedText xml:lang="en">Laboratory Test Results</TranslatedText>
                </Description>
                <mdr:Class Name="FINDINGS"/>
            </ItemGroupDef>
            <ItemGroupDef Domain="MB" Name="MB" OID="IGD.MB" Purpose="Data Collection"
                Repeating="No">
                <Description>
                    <TranslatedText xml:lang="en">Microbiology Specimen</TranslatedText>
                </Description>
                <mdr:Class Name="FINDINGS"/>
            </ItemGroupDef>
            <ItemGroupDef Domain="MI" Name="MI" OID="IGD.MI" Purpose="Data Collection"
                Repeating="No">
                <Description>
                    <TranslatedText xml:lang="en">Microscopic Findings</TranslatedText>
                </Description>
                <mdr:Class Name="FINDINGS"/>
            </ItemGroupDef>
            <ItemGroupDef Domain="MS" Name="MS" OID="IGD.MS" Purpose="Data Collection"
                Repeating="No">
                <Description>
                    <TranslatedText xml:lang="en">Microbiology Susceptibility</TranslatedText>
                </Description>
                <mdr:Class Name="FINDINGS"/>
            </ItemGroupDef>
            <ItemGroupDef Domain="OE" Name="OE" OID="IGD.OE" Purpose="Data Collection"
                Repeating="No">
                <Description>
                    <TranslatedText xml:lang="en">Ophthalmic Examinations</TranslatedText>
                </Description>
                <ItemRef ItemOID="IT.OE.STUDYID" Mandatory="No" OrderNumber="1"/>
                <ItemRef ItemOID="IT.OE.SITEID" Mandatory="No" OrderNumber="2"/>
                <ItemRef ItemOID="IT.OE.SUBJID" Mandatory="No" OrderNumber="3"/>
                <ItemRef ItemOID="IT.OE.VISIT" Mandatory="No" OrderNumber="4"/>
                <ItemRef ItemOID="IT.OE.VISDAT" Mandatory="No" OrderNumber="5"/>
                <ItemRef ItemOID="IT.OE.FOCID" Mandatory="No" OrderNumber="6"/>
                <ItemRef ItemOID="IT.OE.OEPERF" Mandatory="No" OrderNumber="7"/>
                <ItemRef ItemOID="IT.OE.OEDAT" Mandatory="No" OrderNumber="8"/>
                <ItemRef ItemOID="IT.OE.OETIM" Mandatory="No" OrderNumber="9"/>
                <ItemRef ItemOID="IT.OE.OETEST" Mandatory="No" OrderNumber="10"/>
                <ItemRef ItemOID="IT.OE.OETSTDTL" Mandatory="No" OrderNumber="11"/>
                <ItemRef ItemOID="IT.OE.OECAT" Mandatory="No" OrderNumber="12"/>
                <ItemRef ItemOID="IT.OE.OESCAT" Mandatory="No" OrderNumber="13"/>
                <ItemRef ItemOID="IT.OE.OEORRES" Mandatory="No" OrderNumber="14"/>
                <ItemRef ItemOID="IT.OE.OEORRESU" Mandatory="No" OrderNumber="15"/>
                <ItemRef ItemOID="IT.OE.OERES" Mandatory="No" OrderNumber="16"/>
                <ItemRef ItemOID="IT.OE.OERESOTH" Mandatory="No" OrderNumber="17"/>
                <ItemRef ItemOID="IT.OE.OEORNRLO" Mandatory="No" OrderNumber="18"/>
                <ItemRef ItemOID="IT.OE.OEORNRHI" Mandatory="No" OrderNumber="19"/>
                <ItemRef ItemOID="IT.OE.OECSTNRC" Mandatory="No" OrderNumber="20"/>
                <ItemRef ItemOID="IT.OE.OENRIND" Mandatory="No" OrderNumber="21"/>
                <ItemRef ItemOID="IT.OE.OERESCAT" Mandatory="No" OrderNumber="22"/>
                <ItemRef ItemOID="IT.OE.OEREASND" Mandatory="No" OrderNumber="23"/>
                <ItemRef ItemOID="IT.OE.OELOC" Mandatory="No" OrderNumber="24"/>
                <ItemRef ItemOID="IT.OE.OELAT" Mandatory="No" OrderNumber="25"/>
                <ItemRef ItemOID="IT.OE.OEDIR" Mandatory="No" OrderNumber="26"/>
                <ItemRef ItemOID="IT.OE.OEPORTOT" Mandatory="No" OrderNumber="27"/>
                <ItemRef ItemOID="IT.OE.OEMETHOD" Mandatory="No" OrderNumber="28"/>
                <ItemRef ItemOID="IT.OE.OEEVAL" Mandatory="No" OrderNumber="29"/>
                <ItemRef ItemOID="IT.OE.OEEVALID" Mandatory="No" OrderNumber="30"/>
                <ItemRef ItemOID="IT.OE.OEACPTFL" Mandatory="No" OrderNumber="31"/>
                <ItemRef ItemOID="IT.OE.OEREPNUM" Mandatory="No" OrderNumber="32"/>
                <mdr:Class Name="FINDINGS"/>
            </ItemGroupDef>
            <ItemGroupDef Domain="PC" Name="PC" OID="IGD.PC" Purpose="Data Collection"
                Repeating="No">
                <Description>
                    <TranslatedText xml:lang="en">Pharmacokinetics Concentrations</TranslatedText>
                </Description>
                <mdr:Class Name="FINDINGS"/>
            </ItemGroupDef>
            <ItemGroupDef Domain="PE" Name="PE" OID="IGD.PE" Purpose="Data Collection"
                Repeating="No">
                <Description>
                    <TranslatedText xml:lang="en">Physical Examination</TranslatedText>
                </Description>
                <mdr:Class Name="FINDINGS"/>
            </ItemGroupDef>
            <ItemGroupDef Domain="RE" Name="RE" OID="IGD.RE" Purpose="Data Collection"
                Repeating="No">
                <Description>
                    <TranslatedText xml:lang="en">Respiratory System Findings</TranslatedText>
                </Description>
                <ItemRef ItemOID="IT.RE.STUDYID" Mandatory="No" OrderNumber="1"/>
                <ItemRef ItemOID="IT.RE.SITEID" Mandatory="No" OrderNumber="2"/>
                <ItemRef ItemOID="IT.RE.SUBJID" Mandatory="No" OrderNumber="3"/>
                <ItemRef ItemOID="IT.RE.VISIT" Mandatory="No" OrderNumber="4"/>
                <ItemRef ItemOID="IT.RE.VISDAT" Mandatory="No" OrderNumber="5"/>
                <ItemRef ItemOID="IT.RE.REPERF" Mandatory="No" OrderNumber="6"/>
                <ItemRef ItemOID="IT.RE.REDAT" Mandatory="No" OrderNumber="7"/>
                <ItemRef ItemOID="IT.RE.RETIM" Mandatory="No" OrderNumber="8"/>
                <ItemRef ItemOID="IT.RE.RETPT" Mandatory="No" OrderNumber="9"/>
                <ItemRef ItemOID="IT.RE.RETEST" Mandatory="No" OrderNumber="10"/>
                <ItemRef ItemOID="IT.RE.RECAT" Mandatory="No" OrderNumber="11"/>
                <ItemRef ItemOID="IT.RE.RESCAT" Mandatory="No" OrderNumber="12"/>
                <ItemRef ItemOID="IT.RE.REORRES" Mandatory="No" OrderNumber="13"/>
                <ItemRef ItemOID="IT.RE.REORRESU" Mandatory="No" OrderNumber="14"/>
                <ItemRef ItemOID="IT.RE.RERES" Mandatory="No" OrderNumber="15"/>
                <ItemRef ItemOID="IT.RE.REDESC" Mandatory="No" OrderNumber="16"/>
                <ItemRef ItemOID="IT.RE.RERESOTH" Mandatory="No" OrderNumber="17"/>
                <ItemRef ItemOID="IT.RE.REORNRLO" Mandatory="No" OrderNumber="18"/>
                <ItemRef ItemOID="IT.RE.REORNRHI" Mandatory="No" OrderNumber="19"/>
                <ItemRef ItemOID="IT.RE.RENRIND" Mandatory="No" OrderNumber="20"/>
                <ItemRef ItemOID="IT.RE.RESTAT" Mandatory="No" OrderNumber="21"/>
                <ItemRef ItemOID="IT.RE.REREASND" Mandatory="No" OrderNumber="22"/>
                <ItemRef ItemOID="IT.RE.REPOS" Mandatory="No" OrderNumber="23"/>
                <ItemRef ItemOID="IT.RE.RELOC" Mandatory="No" OrderNumber="24"/>
                <ItemRef ItemOID="IT.RE.RELAT" Mandatory="No" OrderNumber="25"/>
                <ItemRef ItemOID="IT.RE.REDIR" Mandatory="No" OrderNumber="26"/>
                <ItemRef ItemOID="IT.RE.REMETHOD" Mandatory="No" OrderNumber="27"/>
                <ItemRef ItemOID="IT.RE.REEVAL" Mandatory="No" OrderNumber="28"/>
                <ItemRef ItemOID="IT.RE.REEVALID" Mandatory="No" OrderNumber="29"/>
                <ItemRef ItemOID="IT.RE.REACPTFL" Mandatory="No" OrderNumber="30"/>
                <ItemRef ItemOID="IT.RE.REREPNUM" Mandatory="No" OrderNumber="31"/>
                <ItemRef ItemOID="IT.RE.RECLSIG" Mandatory="No" OrderNumber="32"/>
                <mdr:Class Name="FINDINGS"/>
            </ItemGroupDef>
            <ItemGroupDef Domain="RP" Name="RP" OID="IGD.RP" Purpose="Data Collection"
                Repeating="No">
                <Description>
                    <TranslatedText xml:lang="en">Reproductive System Findings</TranslatedText>
                </Description>
                <ItemRef ItemOID="IT.RP.STUDYID" Mandatory="No" OrderNumber="1"/>
                <ItemRef ItemOID="IT.RP.SITEID" Mandatory="No" OrderNumber="2"/>
                <ItemRef ItemOID="IT.RP.SUBJID" Mandatory="No" OrderNumber="3"/>
                <ItemRef ItemOID="IT.RP.VISIT" Mandatory="No" OrderNumber="4"/>
                <ItemRef ItemOID="IT.RP.VISDAT" Mandatory="No" OrderNumber="5"/>
                <ItemRef ItemOID="IT.RP.RPCAT" Mandatory="No" OrderNumber="6"/>
                <ItemRef ItemOID="IT.RP.RPSCAT" Mandatory="No" OrderNumber="7"/>
                <ItemRef ItemOID="IT.RP.RPPERF" Mandatory="No" OrderNumber="8"/>
                <ItemRef ItemOID="IT.RP.RPREASND" Mandatory="No" OrderNumber="9"/>
                <ItemRef ItemOID="IT.RP.RPYN" Mandatory="No" OrderNumber="10"/>
                <ItemRef ItemOID="IT.RP.RPSPID" Mandatory="No" OrderNumber="11"/>
                <ItemRef ItemOID="IT.RP.RPTEST" Mandatory="No" OrderNumber="12"/>
                <ItemRef ItemOID="IT.RP.RPORRES" Mandatory="No" OrderNumber="13"/>
                <ItemRef ItemOID="IT.RP.RPORRESU" Mandatory="No" OrderNumber="14"/>
                <ItemRef ItemOID="IT.RP.RPDAT" Mandatory="No" OrderNumber="15"/>
                <mdr:Class Name="FINDINGS"/>
            </ItemGroupDef>
            <ItemGroupDef Domain="RS" Name="RS" OID="IGD.RS" Purpose="Data Collection"
                Repeating="No">
                <Description>
                    <TranslatedText xml:lang="en">Disease Response and Clin
                        Classification</TranslatedText>
                </Description>
                <ItemRef ItemOID="IT.RS.STUDYID" Mandatory="No" OrderNumber="1"/>
                <ItemRef ItemOID="IT.RS.SITEID" Mandatory="No" OrderNumber="2"/>
                <ItemRef ItemOID="IT.RS.SUBJID" Mandatory="No" OrderNumber="3"/>
                <ItemRef ItemOID="IT.RS.VISIT" Mandatory="No" OrderNumber="4"/>
                <ItemRef ItemOID="IT.RS.VISDAT" Mandatory="No" OrderNumber="5"/>
                <ItemRef ItemOID="IT.RS.RSCAT" Mandatory="No" OrderNumber="6"/>
                <ItemRef ItemOID="IT.RS.RSSCAT" Mandatory="No" OrderNumber="7"/>
                <ItemRef ItemOID="IT.RS.RSPERF" Mandatory="No" OrderNumber="8"/>
                <ItemRef ItemOID="IT.RS.RSREASND" Mandatory="No" OrderNumber="9"/>
                <ItemRef ItemOID="IT.RS.RSDAT" Mandatory="No" OrderNumber="10"/>
                <ItemRef ItemOID="IT.RS.RSEVAL" Mandatory="No" OrderNumber="11"/>
                <ItemRef ItemOID="IT.RS.RSEVALID" Mandatory="No" OrderNumber="12"/>
                <ItemRef ItemOID="IT.RS.RSLNKID" Mandatory="No" OrderNumber="13"/>
                <ItemRef ItemOID="IT.RS.RSLNKGRP" Mandatory="No" OrderNumber="14"/>
                <ItemRef ItemOID="IT.RS.RSTEST" Mandatory="No" OrderNumber="15"/>
                <ItemRef ItemOID="IT.RS.RSORRES" Mandatory="No" OrderNumber="16"/>
                <ItemRef ItemOID="IT.RS.RSORRESU" Mandatory="No" OrderNumber="17"/>
                <mdr:Class Name="FINDINGS"/>
            </ItemGroupDef>
            <ItemGroupDef Domain="SC" Name="SC" OID="IGD.SC" Purpose="Data Collection"
                Repeating="No">
                <Description>
                    <TranslatedText xml:lang="en">Subject Characteristics</TranslatedText>
                </Description>
                <ItemRef ItemOID="IT.SC.STUDYID" Mandatory="No" OrderNumber="1"/>
                <ItemRef ItemOID="IT.SC.SITEID" Mandatory="No" OrderNumber="2"/>
                <ItemRef ItemOID="IT.SC.SUBJID" Mandatory="No" OrderNumber="3"/>
                <ItemRef ItemOID="IT.SC.VISIT" Mandatory="No" OrderNumber="4"/>
                <ItemRef ItemOID="IT.SC.VISDAT" Mandatory="No" OrderNumber="5"/>
                <ItemRef ItemOID="IT.SC.SCCAT" Mandatory="No" OrderNumber="6"/>
                <ItemRef ItemOID="IT.SC.SCSCAT" Mandatory="No" OrderNumber="7"/>
                <ItemRef ItemOID="IT.SC.SCPERF" Mandatory="No" OrderNumber="8"/>
                <ItemRef ItemOID="IT.SC.SCSPID" Mandatory="No" OrderNumber="9"/>
                <ItemRef ItemOID="IT.SC.SCDAT" Mandatory="No" OrderNumber="10"/>
                <ItemRef ItemOID="IT.SC.SCTEST" Mandatory="No" OrderNumber="11"/>
                <ItemRef ItemOID="IT.SC.SCORRES" Mandatory="No" OrderNumber="12"/>
                <mdr:Class Name="FINDINGS"/>
            </ItemGroupDef>
            <ItemGroupDef Domain="TR" Name="TR" OID="IGD.TR" Purpose="Data Collection"
                Repeating="No">
                <Description>
                    <TranslatedText xml:lang="en">Tumor/Lesion Results</TranslatedText>
                </Description>
                <ItemRef ItemOID="IT.TR.STUDYID" Mandatory="No" OrderNumber="1"/>
                <ItemRef ItemOID="IT.TR.SITEID" Mandatory="No" OrderNumber="2"/>
                <ItemRef ItemOID="IT.TR.SUBJID" Mandatory="No" OrderNumber="3"/>
                <ItemRef ItemOID="IT.TR.VISIT" Mandatory="No" OrderNumber="4"/>
                <ItemRef ItemOID="IT.TR.VISDAT" Mandatory="No" OrderNumber="5"/>
                <ItemRef ItemOID="IT.TR.TRLNKGRP" Mandatory="No" OrderNumber="6"/>
                <ItemRef ItemOID="IT.TR.TRCAT" Mandatory="No" OrderNumber="7"/>
                <ItemRef ItemOID="IT.TR.TRSCAT" Mandatory="No" OrderNumber="8"/>
                <ItemRef ItemOID="IT.TR.TRSTAT" Mandatory="No" OrderNumber="9"/>
                <ItemRef ItemOID="IT.TR.TRREASND" Mandatory="No" OrderNumber="10"/>
                <ItemRef ItemOID="IT.TR.TREVAL" Mandatory="No" OrderNumber="11"/>
                <ItemRef ItemOID="IT.TR.TREVALID" Mandatory="No" OrderNumber="12"/>
                <ItemRef ItemOID="IT.TR.TRDAT" Mandatory="No" OrderNumber="13"/>
                <ItemRef ItemOID="IT.TR.TRLNKID" Mandatory="No" OrderNumber="14"/>
                <ItemRef ItemOID="IT.TR.TRTEST" Mandatory="No" OrderNumber="15"/>
                <ItemRef ItemOID="IT.TR.TRORRES" Mandatory="No" OrderNumber="16"/>
                <ItemRef ItemOID="IT.TR.TRORRESU" Mandatory="No" OrderNumber="17"/>
                <ItemRef ItemOID="IT.TR.TRNAM" Mandatory="No" OrderNumber="18"/>
                <mdr:Class Name="FINDINGS"/>
            </ItemGroupDef>
            <ItemGroupDef Domain="TU" Name="TU" OID="IGD.TU" Purpose="Data Collection"
                Repeating="No">
                <Description>
                    <TranslatedText xml:lang="en">Tumor/Lesion Identification</TranslatedText>
                </Description>
                <ItemRef ItemOID="IT.TU.STUDYID" Mandatory="No" OrderNumber="1"/>
                <ItemRef ItemOID="IT.TU.SITEID" Mandatory="No" OrderNumber="2"/>
                <ItemRef ItemOID="IT.TU.SUBJID" Mandatory="No" OrderNumber="3"/>
                <ItemRef ItemOID="IT.TU.VISIT" Mandatory="No" OrderNumber="4"/>
                <ItemRef ItemOID="IT.TU.VISDAT" Mandatory="No" OrderNumber="5"/>
                <ItemRef ItemOID="IT.TU.TUCAT" Mandatory="No" OrderNumber="6"/>
                <ItemRef ItemOID="IT.TU.TUSCAT" Mandatory="No" OrderNumber="7"/>
                <ItemRef ItemOID="IT.TU.TUYN" Mandatory="No" OrderNumber="8"/>
                <ItemRef ItemOID="IT.TU.TUDAT" Mandatory="No" OrderNumber="9"/>
                <ItemRef ItemOID="IT.TU.TUEVAL" Mandatory="No" OrderNumber="10"/>
                <ItemRef ItemOID="IT.TU.TUEVALID" Mandatory="No" OrderNumber="11"/>
                <ItemRef ItemOID="IT.TU.TULNKID" Mandatory="No" OrderNumber="12"/>
                <ItemRef ItemOID="IT.TU.TUPRNO" Mandatory="No" OrderNumber="13"/>
                <ItemRef ItemOID="IT.TU.TUMETHOD" Mandatory="No" OrderNumber="14"/>
                <ItemRef ItemOID="IT.TU.TUREFID" Mandatory="No" OrderNumber="15"/>
                <ItemRef ItemOID="IT.TU.TUTEST" Mandatory="No" OrderNumber="16"/>
                <ItemRef ItemOID="IT.TU.TUORRES" Mandatory="No" OrderNumber="17"/>
                <ItemRef ItemOID="IT.TU.TULOC" Mandatory="No" OrderNumber="18"/>
                <ItemRef ItemOID="IT.TU.TULAT" Mandatory="No" OrderNumber="19"/>
                <ItemRef ItemOID="IT.TU.TUDIR" Mandatory="No" OrderNumber="20"/>
                <ItemRef ItemOID="IT.TU.TULOCDTL" Mandatory="No" OrderNumber="21"/>
                <ItemRef ItemOID="IT.TU.TUNAM" Mandatory="No" OrderNumber="22"/>
                <mdr:Class Name="FINDINGS"/>
            </ItemGroupDef>
            <ItemGroupDef Domain="VS" Name="VS" OID="IGD.VS" Purpose="Data Collection"
                Repeating="No">
                <Description>
                    <TranslatedText xml:lang="en">Vital Signs</TranslatedText>
                </Description>
                <ItemRef ItemOID="IT.VS.STUDYID" Mandatory="No" OrderNumber="1"/>
                <ItemRef ItemOID="IT.VS.SITEID" Mandatory="No" OrderNumber="2"/>
                <ItemRef ItemOID="IT.VS.SUBJID" Mandatory="No" OrderNumber="3"/>
                <ItemRef ItemOID="IT.VS.VISIT" Mandatory="No" OrderNumber="4"/>
                <ItemRef ItemOID="IT.VS.VISDAT" Mandatory="No" OrderNumber="5"/>
                <ItemRef ItemOID="IT.VS.VSPERF" Mandatory="No" OrderNumber="6"/>
                <ItemRef ItemOID="IT.VS.VSDAT" Mandatory="No" OrderNumber="7"/>
                <ItemRef ItemOID="IT.VS.VSTIM" Mandatory="No" OrderNumber="8"/>
                <ItemRef ItemOID="IT.VS.VSSPID" Mandatory="No" OrderNumber="9"/>
                <ItemRef ItemOID="IT.VS.VSTPT" Mandatory="No" OrderNumber="10"/>
                <ItemRef ItemOID="IT.VS.VSCAT" Mandatory="No" OrderNumber="11"/>
                <ItemRef ItemOID="IT.VS.VSSCAT" Mandatory="No" OrderNumber="12"/>
                <ItemRef ItemOID="IT.VS.VSREPNUM" Mandatory="No" OrderNumber="13"/>
                <ItemRef ItemOID="IT.VS.VSTEST" Mandatory="No" OrderNumber="14"/>
                <ItemRef ItemOID="IT.VS.VSSTAT" Mandatory="No" OrderNumber="15"/>
                <ItemRef ItemOID="IT.VS.VSORRES" Mandatory="No" OrderNumber="16"/>
                <ItemRef ItemOID="IT.VS.VSORRESU" Mandatory="No" OrderNumber="17"/>
                <ItemRef ItemOID="IT.VS.VSCLSIG" Mandatory="No" OrderNumber="18"/>
                <ItemRef ItemOID="IT.VS.VSLOC" Mandatory="No" OrderNumber="19"/>
                <ItemRef ItemOID="IT.VS.VSPOS" Mandatory="No" OrderNumber="20"/>
                <ItemRef ItemOID="IT.VS.VSDIR" Mandatory="No" OrderNumber="21"/>
                <ItemRef ItemOID="IT.VS.VSLAT" Mandatory="No" OrderNumber="22"/>
                <mdr:Class Name="FINDINGS"/>
            </ItemGroupDef>
            <ItemGroupDef Domain="CO" Name="CO" OID="IGD.CO" Purpose="Data Collection"
                Repeating="No">
                <Description>
                    <TranslatedText xml:lang="en">Comments</TranslatedText>
                </Description>
                <ItemRef ItemOID="IT.CO.STUDYID" Mandatory="No" OrderNumber="1"/>
                <ItemRef ItemOID="IT.CO.SITEID" Mandatory="No" OrderNumber="2"/>
                <ItemRef ItemOID="IT.CO.SUBJID" Mandatory="No" OrderNumber="3"/>
                <ItemRef ItemOID="IT.CO.COVAL" Mandatory="No" OrderNumber="4"/>
                <mdr:Class Name="SPECIAL PURPOSE"/>
            </ItemGroupDef>
            <ItemGroupDef Domain="DM" Name="DM" OID="IGD.DM" Purpose="Data Collection"
                Repeating="No">
                <Description>
                    <TranslatedText xml:lang="en">Demographics</TranslatedText>
                </Description>
                <mdr:Class Name="SPECIAL PURPOSE"/>
            </ItemGroupDef>
            <ItemGroupDef Domain="Disposition" Name="DS.ProtocolMilestone"
                OID="IGD.DS.ProtocolMilestone" Purpose="Data Collection" Repeating="No">
                <Description>
                    <TranslatedText xml:lang="en"/>
                </Description>
                <ItemRef ItemOID="IT.DS.ProtocolMilestone.STUDYID" Mandatory="No" OrderNumber="1"/>
                <ItemRef ItemOID="IT.DS.ProtocolMilestone.SITEID" Mandatory="No" OrderNumber="2"/>
                <ItemRef ItemOID="IT.DS.ProtocolMilestone.SUBJID" Mandatory="No" OrderNumber="3"/>
                <ItemRef ItemOID="IT.DS.ProtocolMilestone.DSCAT" Mandatory="No" OrderNumber="4"/>
                <ItemRef ItemOID="IT.DS.ProtocolMilestone.DSSCAT" Mandatory="No" OrderNumber="5"/>
                <ItemRef ItemOID="IT.DS.ProtocolMilestone.EPOCH" Mandatory="No" OrderNumber="6"/>
                <ItemRef ItemOID="IT.DS.ProtocolMilestone.DSDECOD" Mandatory="No" OrderNumber="7"/>
                <ItemRef ItemOID="IT.DS.ProtocolMilestone.DSTERM" Mandatory="No" OrderNumber="8"/>
                <ItemRef ItemOID="IT.DS.ProtocolMilestone.DSSTDAT" Mandatory="No" OrderNumber="9"/>
                <ItemRef ItemOID="IT.DS.ProtocolMilestone.DSSTTIM" Mandatory="No" OrderNumber="10"/>
                <ItemRef ItemOID="IT.DS.ProtocolMilestone.DSUNBLND" Mandatory="No" OrderNumber="11"/>
                <mdr:Class Name="EVENTS"/>
            </ItemGroupDef>
            <ItemGroupDef Domain="Disposition" Name="DS.StudyParticipation"
                OID="IGD.DS.StudyParticipation" Purpose="Data Collection" Repeating="No">
                <Description>
                    <TranslatedText xml:lang="en"/>
                </Description>
                <ItemRef ItemOID="IT.DS.StudyParticipation.STUDYID" Mandatory="No" OrderNumber="1"/>
                <ItemRef ItemOID="IT.DS.StudyParticipation.SITEID" Mandatory="No" OrderNumber="2"/>
                <ItemRef ItemOID="IT.DS.StudyParticipation.SUBJID" Mandatory="No" OrderNumber="3"/>
                <ItemRef ItemOID="IT.DS.StudyParticipation.DSCAT" Mandatory="No" OrderNumber="4"/>
                <ItemRef ItemOID="IT.DS.StudyParticipation.DSSCAT" Mandatory="No" OrderNumber="5"/>
                <ItemRef ItemOID="IT.DS.StudyParticipation.EPOCH" Mandatory="No" OrderNumber="6"/>
                <ItemRef ItemOID="IT.DS.StudyParticipation.DSDECOD" Mandatory="No" OrderNumber="7"/>
                <ItemRef ItemOID="IT.DS.StudyParticipation.DSTERM" Mandatory="No" OrderNumber="8"/>
                <ItemRef ItemOID="IT.DS.StudyParticipation.DSSTDAT" Mandatory="No" OrderNumber="9"/>
                <ItemRef ItemOID="IT.DS.StudyParticipation.DSSTTIM" Mandatory="No" OrderNumber="10"/>
                <ItemRef ItemOID="IT.DS.StudyParticipation.DTHDAT" Mandatory="No" OrderNumber="11"/>
                <ItemRef ItemOID="IT.DS.StudyParticipation.DSCONT" Mandatory="No" OrderNumber="12"/>
                <ItemRef ItemOID="IT.DS.StudyParticipation.DSNEXT" Mandatory="No" OrderNumber="13"/>
                <mdr:Class Name="EVENTS"/>
            </ItemGroupDef>
            <ItemGroupDef Domain="Drug Accountability" Name="DA.HorizontalGeneric"
                OID="IGD.DA.HorizontalGeneric" Purpose="Data Collection" Repeating="No">
                <Description>
                    <TranslatedText xml:lang="en"/>
                </Description>
                <ItemRef ItemOID="IT.DA.STUDYID" Mandatory="No" OrderNumber="1"/>
                <ItemRef ItemOID="IT.DA.SITEID" Mandatory="No" OrderNumber="2"/>
                <ItemRef ItemOID="IT.DA.SUBJID" Mandatory="No" OrderNumber="3"/>
                <ItemRef ItemOID="IT.DA.VISIT" Mandatory="No" OrderNumber="4"/>
                <ItemRef ItemOID="IT.DA.VISDAT" Mandatory="No" OrderNumber="5"/>
                <ItemRef ItemOID="IT.DA.DAPERF" Mandatory="No" OrderNumber="6"/>
                <ItemRef ItemOID="IT.DA.DACAT" Mandatory="No" OrderNumber="7"/>
                <ItemRef ItemOID="IT.DA.DASCAT" Mandatory="No" OrderNumber="8"/>
                <ItemRef ItemOID="IT.DA.DADAT" Mandatory="No" OrderNumber="9"/>
                <ItemRef ItemOID="IT.DA.DAREFID" Mandatory="No" OrderNumber="10"/>
                <ItemRef ItemOID="IT.DA.DATEST" Mandatory="No" OrderNumber="11"/>
                <ItemRef ItemOID="IT.DA.DAORRES" Mandatory="No" OrderNumber="12"/>
                <ItemRef ItemOID="IT.DA.DAORRESU" Mandatory="No" OrderNumber="13"/>
                <ItemRef ItemOID="IT.DA.HorizontalGeneric.STUDYID" Mandatory="No" OrderNumber="14"/>
                <ItemRef ItemOID="IT.DA.HorizontalGeneric.SITEID" Mandatory="No" OrderNumber="15"/>
                <ItemRef ItemOID="IT.DA.HorizontalGeneric.SUBJID" Mandatory="No" OrderNumber="16"/>
                <ItemRef ItemOID="IT.DA.HorizontalGeneric.VISIT" Mandatory="No" OrderNumber="17"/>
                <ItemRef ItemOID="IT.DA.HorizontalGeneric.VISDAT" Mandatory="No" OrderNumber="18"/>
                <ItemRef ItemOID="IT.DA.HorizontalGeneric.DAGRPID" Mandatory="No" OrderNumber="19"/>
                <ItemRef ItemOID="IT.DA.HorizontalGeneric.[DATESTCD]_DAPERF" Mandatory="No"
                    OrderNumber="20"/>
                <ItemRef ItemOID="IT.DA.HorizontalGeneric.[DATESTCD]_DACAT" Mandatory="No"
                    OrderNumber="21"/>
                <ItemRef ItemOID="IT.DA.HorizontalGeneric.[DATESTCD]_DASCAT" Mandatory="No"
                    OrderNumber="22"/>
                <ItemRef ItemOID="IT.DA.HorizontalGeneric.[DATESTCD]_DAREFID" Mandatory="No"
                    OrderNumber="23"/>
                <ItemRef ItemOID="IT.DA.HorizontalGeneric.[DATESTCD]_DADAT" Mandatory="No"
                    OrderNumber="24"/>
                <ItemRef ItemOID="IT.DA.HorizontalGeneric.[DATESTCD]_DAORRES" Mandatory="No"
                    OrderNumber="25"/>
                <ItemRef ItemOID="IT.DA.HorizontalGeneric.[DATESTCD]_DAORRESU" Mandatory="No"
                    OrderNumber="26"/>
                <mdr:Class Name="FINDINGS"/>
            </ItemGroupDef>
            <ItemGroupDef Domain="Death Details" Name="DD.HorizontalGeneric"
                OID="IGD.DD.HorizontalGeneric" Purpose="Data Collection" Repeating="No">
                <Description>
                    <TranslatedText xml:lang="en"/>
                </Description>
                <ItemRef ItemOID="IT.DD.STUDYID" Mandatory="No" OrderNumber="1"/>
                <ItemRef ItemOID="IT.DD.SITEID" Mandatory="No" OrderNumber="2"/>
                <ItemRef ItemOID="IT.DD.SUBJID" Mandatory="No" OrderNumber="3"/>
                <ItemRef ItemOID="IT.DD.VISIT" Mandatory="No" OrderNumber="4"/>
                <ItemRef ItemOID="IT.DD.VISDAT" Mandatory="No" OrderNumber="5"/>
                <ItemRef ItemOID="IT.DD.DDCAT" Mandatory="No" OrderNumber="6"/>
                <ItemRef ItemOID="IT.DD.DDSCAT" Mandatory="No" OrderNumber="7"/>
                <ItemRef ItemOID="IT.DD.DDYN" Mandatory="No" OrderNumber="8"/>
                <ItemRef ItemOID="IT.DD.DDDAT" Mandatory="No" OrderNumber="9"/>
                <ItemRef ItemOID="IT.DD.DDSPID" Mandatory="No" OrderNumber="10"/>
                <ItemRef ItemOID="IT.DD.DTHDAT" Mandatory="No" OrderNumber="11"/>
                <ItemRef ItemOID="IT.DD.DDTEST" Mandatory="No" OrderNumber="12"/>
                <ItemRef ItemOID="IT.DD.DDORRES" Mandatory="No" OrderNumber="13"/>
                <ItemRef ItemOID="IT.DD.DDEVAL" Mandatory="No" OrderNumber="14"/>
                <ItemRef ItemOID="IT.DD.HorizontalGeneric.STUDYID" Mandatory="No" OrderNumber="15"/>
                <ItemRef ItemOID="IT.DD.HorizontalGeneric.SITEID" Mandatory="No" OrderNumber="16"/>
                <ItemRef ItemOID="IT.DD.HorizontalGeneric.SUBJID" Mandatory="No" OrderNumber="17"/>
                <ItemRef ItemOID="IT.DD.HorizontalGeneric.VISIT" Mandatory="No" OrderNumber="18"/>
                <ItemRef ItemOID="IT.DD.HorizontalGeneric.VISDAT" Mandatory="No" OrderNumber="19"/>
                <ItemRef ItemOID="IT.DD.HorizontalGeneric.DDYN" Mandatory="No" OrderNumber="20"/>
                <ItemRef ItemOID="IT.DD.HorizontalGeneric.DDCAT" Mandatory="No" OrderNumber="21"/>
                <ItemRef ItemOID="IT.DD.HorizontalGeneric.DDSCAT" Mandatory="No" OrderNumber="22"/>
                <ItemRef ItemOID="IT.DD.HorizontalGeneric.[DTHDXCD]_DDDAT" Mandatory="No"
                    OrderNumber="23"/>
                <ItemRef ItemOID="IT.DD.HorizontalGeneric.DTHDAT" Mandatory="No" OrderNumber="24"/>
                <ItemRef ItemOID="IT.DD.HorizontalGeneric.[DTHDXCD]_DDORRES" Mandatory="No"
                    OrderNumber="25"/>
                <ItemRef ItemOID="IT.DD.HorizontalGeneric.DDEVAL" Mandatory="No" OrderNumber="26"/>
                <mdr:Class Name="FINDINGS"/>
            </ItemGroupDef>
            <ItemGroupDef Domain="ECG" Name="EG.CentralReading" OID="IGD.EG.CentralReading"
                Purpose="Data Collection" Repeating="No">
                <Description>
                    <TranslatedText xml:lang="en"/>
                </Description>
                <ItemRef ItemOID="IT.EG.CentralReading.STUDYID" Mandatory="No" OrderNumber="1"/>
                <ItemRef ItemOID="IT.EG.CentralReading.SITEID" Mandatory="No" OrderNumber="2"/>
                <ItemRef ItemOID="IT.EG.CentralReading.SUBJID" Mandatory="No" OrderNumber="3"/>
                <ItemRef ItemOID="IT.EG.CentralReading.VISIT" Mandatory="No" OrderNumber="4"/>
                <ItemRef ItemOID="IT.EG.CentralReading.VISDAT" Mandatory="No" OrderNumber="5"/>
                <ItemRef ItemOID="IT.EG.CentralReading.EGCAT" Mandatory="No" OrderNumber="6"/>
                <ItemRef ItemOID="IT.EG.CentralReading.EGSCAT" Mandatory="No" OrderNumber="7"/>
                <ItemRef ItemOID="IT.EG.CentralReading.EGPERF" Mandatory="No" OrderNumber="8"/>
                <ItemRef ItemOID="IT.EG.CentralReading.EGREPNUM" Mandatory="No" OrderNumber="9"/>
                <ItemRef ItemOID="IT.EG.CentralReading.EGREFID" Mandatory="No" OrderNumber="10"/>
                <ItemRef ItemOID="IT.EG.CentralReading.EGMETHOD" Mandatory="No" OrderNumber="11"/>
                <ItemRef ItemOID="IT.EG.CentralReading.EGLEAD" Mandatory="No" OrderNumber="12"/>
                <ItemRef ItemOID="IT.EG.CentralReading.EGPOS" Mandatory="No" OrderNumber="13"/>
                <ItemRef ItemOID="IT.EG.CentralReading.EGDAT" Mandatory="No" OrderNumber="14"/>
                <ItemRef ItemOID="IT.EG.CentralReading.EGTPT" Mandatory="No" OrderNumber="15"/>
                <ItemRef ItemOID="IT.EG.CentralReading.EGTIM" Mandatory="No" OrderNumber="16"/>
                <mdr:Class Name="FINDINGS"/>
            </ItemGroupDef>
            <ItemGroupDef Domain="ECG" Name="EG.LocalReading" OID="IGD.EG.LocalReading"
                Purpose="Data Collection" Repeating="No">
                <Description>
                    <TranslatedText xml:lang="en"/>
                </Description>
                <ItemRef ItemOID="IT.EG.LocalReading.STUDYID" Mandatory="No" OrderNumber="1"/>
                <ItemRef ItemOID="IT.EG.LocalReading.SITEID" Mandatory="No" OrderNumber="2"/>
                <ItemRef ItemOID="IT.EG.LocalReading.SUBJID" Mandatory="No" OrderNumber="3"/>
                <ItemRef ItemOID="IT.EG.LocalReading.VISIT" Mandatory="No" OrderNumber="4"/>
                <ItemRef ItemOID="IT.EG.LocalReading.VISDAT" Mandatory="No" OrderNumber="5"/>
                <ItemRef ItemOID="IT.EG.LocalReading.EGCAT" Mandatory="No" OrderNumber="6"/>
                <ItemRef ItemOID="IT.EG.LocalReading.EGSCAT" Mandatory="No" OrderNumber="7"/>
                <ItemRef ItemOID="IT.EG.LocalReading.EGPERF" Mandatory="No" OrderNumber="8"/>
                <ItemRef ItemOID="IT.EG.LocalReading.EGREPNUM" Mandatory="No" OrderNumber="9"/>
                <ItemRef ItemOID="IT.EG.LocalReading.EGMETHOD" Mandatory="No" OrderNumber="10"/>
                <ItemRef ItemOID="IT.EG.LocalReading.EGLEAD" Mandatory="No" OrderNumber="11"/>
                <ItemRef ItemOID="IT.EG.LocalReading.EGPOS" Mandatory="No" OrderNumber="12"/>
                <ItemRef ItemOID="IT.EG.LocalReading.EGDAT" Mandatory="No" OrderNumber="13"/>
                <ItemRef ItemOID="IT.EG.LocalReading.EGTPT" Mandatory="No" OrderNumber="14"/>
                <ItemRef ItemOID="IT.EG.LocalReading.EGTIM" Mandatory="No" OrderNumber="15"/>
                <ItemRef ItemOID="IT.EG.LocalReading.EGTEST" Mandatory="No" OrderNumber="16"/>
                <ItemRef ItemOID="IT.EG.LocalReading.EGORRES" Mandatory="No" OrderNumber="17"/>
                <ItemRef ItemOID="IT.EG.LocalReading.EGORRESU" Mandatory="No" OrderNumber="18"/>
                <ItemRef ItemOID="IT.EG.LocalReading.EGCLSIG" Mandatory="No" OrderNumber="19"/>
                <mdr:Class Name="FINDINGS"/>
            </ItemGroupDef>
            <ItemGroupDef Domain="ECG" Name="EG.CentralReadingIA" OID="IGD.EG.CentralReadingIA"
                Purpose="Data Collection" Repeating="No">
                <Description>
                    <TranslatedText xml:lang="en"/>
                </Description>
                <ItemRef ItemOID="IT.EG.CentralReadingIA.STUDYID" Mandatory="No" OrderNumber="1"/>
                <ItemRef ItemOID="IT.EG.CentralReadingIA.SITEID" Mandatory="No" OrderNumber="2"/>
                <ItemRef ItemOID="IT.EG.CentralReadingIA.SUBJID" Mandatory="No" OrderNumber="3"/>
                <ItemRef ItemOID="IT.EG.CentralReadingIA.VISIT" Mandatory="No" OrderNumber="4"/>
                <ItemRef ItemOID="IT.EG.CentralReadingIA.VISDAT" Mandatory="No" OrderNumber="5"/>
                <ItemRef ItemOID="IT.EG.CentralReadingIA.EGCAT" Mandatory="No" OrderNumber="6"/>
                <ItemRef ItemOID="IT.EG.CentralReadingIA.EGSCAT" Mandatory="No" OrderNumber="7"/>
                <ItemRef ItemOID="IT.EG.CentralReadingIA.EGPERF" Mandatory="No" OrderNumber="8"/>
                <ItemRef ItemOID="IT.EG.CentralReadingIA.EGREPNUM" Mandatory="No" OrderNumber="9"/>
                <ItemRef ItemOID="IT.EG.CentralReadingIA.EGREFID" Mandatory="No" OrderNumber="10"/>
                <ItemRef ItemOID="IT.EG.CentralReadingIA.EGMETHOD" Mandatory="No" OrderNumber="11"/>
                <ItemRef ItemOID="IT.EG.CentralReadingIA.EGLEAD" Mandatory="No" OrderNumber="12"/>
                <ItemRef ItemOID="IT.EG.CentralReadingIA.EGPOS" Mandatory="No" OrderNumber="13"/>
                <ItemRef ItemOID="IT.EG.CentralReadingIA.EGDAT" Mandatory="No" OrderNumber="14"/>
                <ItemRef ItemOID="IT.EG.CentralReadingIA.EGTPT" Mandatory="No" OrderNumber="15"/>
                <ItemRef ItemOID="IT.EG.CentralReadingIA.EGTIM" Mandatory="No" OrderNumber="16"/>
                <ItemRef ItemOID="IT.EG.CentralReadingIA.EGEVAL" Mandatory="No" OrderNumber="17"/>
                <ItemRef ItemOID="IT.EG.CentralReadingIA.INTP_EGORRES" Mandatory="No"
                    OrderNumber="18"/>
                <ItemRef ItemOID="IT.EG.CentralReadingIA.EGCLSIG" Mandatory="No" OrderNumber="19"/>
                <ItemRef ItemOID="IT.EG.CentralReadingIA.EGMHNO" Mandatory="No" OrderNumber="20"/>
                <ItemRef ItemOID="IT.EG.CentralReadingIA.EGAENO" Mandatory="No" OrderNumber="21"/>
                <mdr:Class Name="FINDINGS"/>
            </ItemGroupDef>
            <ItemGroupDef Domain="Labs" Name="LB.CentralProcessing" OID="IGD.LB.CentralProcessing"
                Purpose="Data Collection" Repeating="No">
                <Description>
                    <TranslatedText xml:lang="en"/>
                </Description>
                <ItemRef ItemOID="IT.LB.CentralProcessing.STUDYID" Mandatory="No" OrderNumber="1"/>
                <ItemRef ItemOID="IT.LB.CentralProcessing.SITEID" Mandatory="No" OrderNumber="2"/>
                <ItemRef ItemOID="IT.LB.CentralProcessing.SUBJID" Mandatory="No" OrderNumber="3"/>
                <ItemRef ItemOID="IT.LB.CentralProcessing.VISIT" Mandatory="No" OrderNumber="4"/>
                <ItemRef ItemOID="IT.LB.CentralProcessing.VISDAT" Mandatory="No" OrderNumber="5"/>
                <ItemRef ItemOID="IT.LB.CentralProcessing.LBPERF" Mandatory="No" OrderNumber="6"/>
                <ItemRef ItemOID="IT.LB.CentralProcessing.LBDAT" Mandatory="No" OrderNumber="7"/>
                <ItemRef ItemOID="IT.LB.CentralProcessing.LBTIM" Mandatory="No" OrderNumber="8"/>
                <ItemRef ItemOID="IT.LB.CentralProcessing.LBCAT" Mandatory="No" OrderNumber="9"/>
                <ItemRef ItemOID="IT.LB.CentralProcessing.LBSCAT" Mandatory="No" OrderNumber="10"/>
                <ItemRef ItemOID="IT.LB.CentralProcessing.LBTPT" Mandatory="No" OrderNumber="11"/>
                <ItemRef ItemOID="IT.LB.CentralProcessing.LBCOND" Mandatory="No" OrderNumber="12"/>
                <ItemRef ItemOID="IT.LB.CentralProcessing.LBFAST" Mandatory="No" OrderNumber="13"/>
                <ItemRef ItemOID="IT.LB.CentralProcessing.LBREFID" Mandatory="No" OrderNumber="14"/>
                <mdr:Class Name="FINDINGS"/>
            </ItemGroupDef>
            <ItemGroupDef Domain="Labs" Name="LB.CentralProcessingCS"
                OID="IGD.LB.CentralProcessingCS" Purpose="Data Collection" Repeating="No">
                <Description>
                    <TranslatedText xml:lang="en"/>
                </Description>
                <ItemRef ItemOID="IT.LB.CentralProcessingCS.STUDYID" Mandatory="No" OrderNumber="1"/>
                <ItemRef ItemOID="IT.LB.CentralProcessingCS.SITEID" Mandatory="No" OrderNumber="2"/>
                <ItemRef ItemOID="IT.LB.CentralProcessingCS.SUBJID" Mandatory="No" OrderNumber="3"/>
                <ItemRef ItemOID="IT.LB.CentralProcessingCS.VISIT" Mandatory="No" OrderNumber="4"/>
                <ItemRef ItemOID="IT.LB.CentralProcessingCS.VISDAT" Mandatory="No" OrderNumber="5"/>
                <ItemRef ItemOID="IT.LB.CentralProcessingCS.LBPERF" Mandatory="No" OrderNumber="6"/>
                <ItemRef ItemOID="IT.LB.CentralProcessingCS.LBDAT" Mandatory="No" OrderNumber="7"/>
                <ItemRef ItemOID="IT.LB.CentralProcessingCS.LBTIM" Mandatory="No" OrderNumber="8"/>
                <ItemRef ItemOID="IT.LB.CentralProcessingCS.LBCAT" Mandatory="No" OrderNumber="9"/>
                <ItemRef ItemOID="IT.LB.CentralProcessingCS.LBSCAT" Mandatory="No" OrderNumber="10"/>
                <ItemRef ItemOID="IT.LB.CentralProcessingCS.LBTPT" Mandatory="No" OrderNumber="11"/>
                <ItemRef ItemOID="IT.LB.CentralProcessingCS.LBCOND" Mandatory="No" OrderNumber="12"/>
                <ItemRef ItemOID="IT.LB.CentralProcessingCS.LBFAST" Mandatory="No" OrderNumber="13"/>
                <ItemRef ItemOID="IT.LB.CentralProcessingCS.LBTEST" Mandatory="No" OrderNumber="14"/>
                <ItemRef ItemOID="IT.LB.CentralProcessingCS.LBORRES" Mandatory="No" OrderNumber="15"/>
                <ItemRef ItemOID="IT.LB.CentralProcessingCS.LBORRESU" Mandatory="No"
                    OrderNumber="16"/>
                <ItemRef ItemOID="IT.LB.CentralProcessingCS.LBCLSIG" Mandatory="No" OrderNumber="17"/>
                <ItemRef ItemOID="IT.LB.CentralProcessingCS.LBREFID" Mandatory="No" OrderNumber="18"/>
                <ItemRef ItemOID="IT.LB.CentralProcessingCS.LBMETHOD" Mandatory="No"
                    OrderNumber="19"/>
                <mdr:Class Name="FINDINGS"/>
            </ItemGroupDef>
            <ItemGroupDef Domain="Labs" Name="LB.LocalProcessing" OID="IGD.LB.LocalProcessing"
                Purpose="Data Collection" Repeating="No">
                <Description>
                    <TranslatedText xml:lang="en"/>
                </Description>
                <ItemRef ItemOID="IT.LB.LocalProcessing.STUDYID" Mandatory="No" OrderNumber="1"/>
                <ItemRef ItemOID="IT.LB.LocalProcessing.SITEID" Mandatory="No" OrderNumber="2"/>
                <ItemRef ItemOID="IT.LB.LocalProcessing.SUBJID" Mandatory="No" OrderNumber="3"/>
                <ItemRef ItemOID="IT.LB.LocalProcessing.VISIT" Mandatory="No" OrderNumber="4"/>
                <ItemRef ItemOID="IT.LB.LocalProcessing.VISDAT" Mandatory="No" OrderNumber="5"/>
                <ItemRef ItemOID="IT.LB.LocalProcessing.LBPERF" Mandatory="No" OrderNumber="6"/>
                <ItemRef ItemOID="IT.LB.LocalProcessing.LBDAT" Mandatory="No" OrderNumber="7"/>
                <ItemRef ItemOID="IT.LB.LocalProcessing.LBTIM" Mandatory="No" OrderNumber="8"/>
                <ItemRef ItemOID="IT.LB.LocalProcessing.LBCAT" Mandatory="No" OrderNumber="9"/>
                <ItemRef ItemOID="IT.LB.LocalProcessing.LBSCAT" Mandatory="No" OrderNumber="10"/>
                <ItemRef ItemOID="IT.LB.LocalProcessing.LBTPT" Mandatory="No" OrderNumber="11"/>
                <ItemRef ItemOID="IT.LB.LocalProcessing.LBFAST" Mandatory="No" OrderNumber="12"/>
                <ItemRef ItemOID="IT.LB.LocalProcessing.LBCOND" Mandatory="No" OrderNumber="13"/>
                <ItemRef ItemOID="IT.LB.LocalProcessing.LBSPCCND" Mandatory="No" OrderNumber="14"/>
                <ItemRef ItemOID="IT.LB.LocalProcessing.LBTEST" Mandatory="No" OrderNumber="15"/>
                <ItemRef ItemOID="IT.LB.LocalProcessing.LBORRES" Mandatory="No" OrderNumber="16"/>
                <ItemRef ItemOID="IT.LB.LocalProcessing.LBMETHOD" Mandatory="No" OrderNumber="17"/>
                <ItemRef ItemOID="IT.LB.LocalProcessing.LBORRESU" Mandatory="No" OrderNumber="18"/>
                <ItemRef ItemOID="IT.LB.LocalProcessing.LBCRESU" Mandatory="No" OrderNumber="19"/>
                <ItemRef ItemOID="IT.LB.LocalProcessing.LBTOXGR" Mandatory="No" OrderNumber="20"/>
                <ItemRef ItemOID="IT.LB.LocalProcessing.LBTOX" Mandatory="No" OrderNumber="21"/>
                <ItemRef ItemOID="IT.LB.LocalProcessing.LBORNRLO" Mandatory="No" OrderNumber="22"/>
                <ItemRef ItemOID="IT.LB.LocalProcessing.LBORNRHI" Mandatory="No" OrderNumber="23"/>
                <ItemRef ItemOID="IT.LB.LocalProcessing.LBNRIND" Mandatory="No" OrderNumber="24"/>
                <ItemRef ItemOID="IT.LB.LocalProcessing.LBCLSIG" Mandatory="No" OrderNumber="25"/>
                <ItemRef ItemOID="IT.LB.LocalProcessing.LBNAM" Mandatory="No" OrderNumber="26"/>
                <mdr:Class Name="FINDINGS"/>
            </ItemGroupDef>
            <ItemGroupDef Domain="Microbiology Specimen" Name="MB.CentralProcessing"
                OID="IGD.MB.CentralProcessing" Purpose="Data Collection" Repeating="No">
                <Description>
                    <TranslatedText xml:lang="en"/>
                </Description>
                <ItemRef ItemOID="IT.MB.CentralProcessing.STUDYID" Mandatory="No" OrderNumber="1"/>
                <ItemRef ItemOID="IT.MB.CentralProcessing.SITEID" Mandatory="No" OrderNumber="2"/>
                <ItemRef ItemOID="IT.MB.CentralProcessing.SUBJID" Mandatory="No" OrderNumber="3"/>
                <ItemRef ItemOID="IT.MB.CentralProcessing.VISIT" Mandatory="No" OrderNumber="4"/>
                <ItemRef ItemOID="IT.MB.CentralProcessing.VISDAT" Mandatory="No" OrderNumber="5"/>
                <ItemRef ItemOID="IT.MB.CentralProcessing.MBPERF" Mandatory="No" OrderNumber="6"/>
                <ItemRef ItemOID="IT.MB.CentralProcessing.MBREFID" Mandatory="No" OrderNumber="7"/>
                <ItemRef ItemOID="IT.MB.CentralProcessing.MBGRPID" Mandatory="No" OrderNumber="8"/>
                <ItemRef ItemOID="IT.MB.CentralProcessing.MBDAT" Mandatory="No" OrderNumber="9"/>
                <ItemRef ItemOID="IT.MB.CentralProcessing.MBTIM" Mandatory="No" OrderNumber="10"/>
                <ItemRef ItemOID="IT.MB.CentralProcessing.MBCAT" Mandatory="No" OrderNumber="11"/>
                <ItemRef ItemOID="IT.MB.CentralProcessing.MBSCAT" Mandatory="No" OrderNumber="12"/>
                <ItemRef ItemOID="IT.MB.CentralProcessing.MBSPEC" Mandatory="No" OrderNumber="13"/>
                <ItemRef ItemOID="IT.MB.CentralProcessing.MBSPCCND" Mandatory="No" OrderNumber="14"/>
                <ItemRef ItemOID="IT.MB.CentralProcessing.MBLOC" Mandatory="No" OrderNumber="15"/>
                <ItemRef ItemOID="IT.MB.CentralProcessing.MBLAT" Mandatory="No" OrderNumber="16"/>
                <ItemRef ItemOID="IT.MB.CentralProcessing.MBDIR" Mandatory="No" OrderNumber="17"/>
                <mdr:Class Name="FINDINGS"/>
            </ItemGroupDef>
            <ItemGroupDef Domain="Microbiology Specimen" Name="MB.LocalProcessing"
                OID="IGD.MB.LocalProcessing" Purpose="Data Collection" Repeating="No">
                <Description>
                    <TranslatedText xml:lang="en"/>
                </Description>
                <ItemRef ItemOID="IT.MB.LocalProcessing.STUDYID" Mandatory="No" OrderNumber="1"/>
                <ItemRef ItemOID="IT.MB.LocalProcessing.SITEID" Mandatory="No" OrderNumber="2"/>
                <ItemRef ItemOID="IT.MB.LocalProcessing.SUBJID" Mandatory="No" OrderNumber="3"/>
                <ItemRef ItemOID="IT.MB.LocalProcessing.VISIT" Mandatory="No" OrderNumber="4"/>
                <ItemRef ItemOID="IT.MB.LocalProcessing.VISDAT" Mandatory="No" OrderNumber="5"/>
                <ItemRef ItemOID="IT.MB.LocalProcessing.MBPERF" Mandatory="No" OrderNumber="6"/>
                <ItemRef ItemOID="IT.MB.LocalProcessing.MBREFID" Mandatory="No" OrderNumber="7"/>
                <ItemRef ItemOID="IT.MB.LocalProcessing.MBSPID" Mandatory="No" OrderNumber="8"/>
                <ItemRef ItemOID="IT.MB.LocalProcessing.MBGRPID" Mandatory="No" OrderNumber="9"/>
                <ItemRef ItemOID="IT.MB.LocalProcessing.MBLNKID" Mandatory="No" OrderNumber="10"/>
                <ItemRef ItemOID="IT.MB.LocalProcessing.MBDAT" Mandatory="No" OrderNumber="11"/>
                <ItemRef ItemOID="IT.MB.LocalProcessing.MBTIM" Mandatory="No" OrderNumber="12"/>
                <ItemRef ItemOID="IT.MB.LocalProcessing.MBCAT" Mandatory="No" OrderNumber="13"/>
                <ItemRef ItemOID="IT.MB.LocalProcessing.MBSCAT" Mandatory="No" OrderNumber="14"/>
                <ItemRef ItemOID="IT.MB.LocalProcessing.MBTEST" Mandatory="No" OrderNumber="15"/>
                <ItemRef ItemOID="IT.MB.LocalProcessing.MBTSTDTL" Mandatory="No" OrderNumber="16"/>
                <ItemRef ItemOID="IT.MB.LocalProcessing.MBORRES" Mandatory="No" OrderNumber="17"/>
                <ItemRef ItemOID="IT.MB.LocalProcessing.MBORRESU" Mandatory="No" OrderNumber="18"/>
                <ItemRef ItemOID="IT.MB.LocalProcessing.MBCLSIG" Mandatory="No" OrderNumber="19"/>
                <ItemRef ItemOID="IT.MB.LocalProcessing.MBRESCAT" Mandatory="No" OrderNumber="20"/>
                <ItemRef ItemOID="IT.MB.LocalProcessing.MBNAM" Mandatory="No" OrderNumber="21"/>
                <ItemRef ItemOID="IT.MB.LocalProcessing.MBSPEC" Mandatory="No" OrderNumber="22"/>
                <ItemRef ItemOID="IT.MB.LocalProcessing.MBSPCCND" Mandatory="No" OrderNumber="23"/>
                <ItemRef ItemOID="IT.MB.LocalProcessing.MBLOC" Mandatory="No" OrderNumber="24"/>
                <ItemRef ItemOID="IT.MB.LocalProcessing.MBLAT" Mandatory="No" OrderNumber="25"/>
                <ItemRef ItemOID="IT.MB.LocalProcessing.MBDIR" Mandatory="No" OrderNumber="26"/>
                <ItemRef ItemOID="IT.MB.LocalProcessing.MBMETHOD" Mandatory="No" OrderNumber="27"/>
                <ItemRef ItemOID="IT.MB.LocalProcessing.MBEVAL" Mandatory="No" OrderNumber="28"/>
                <mdr:Class Name="FINDINGS"/>
            </ItemGroupDef>
            <ItemGroupDef Domain="Microbiology Susceptibility Test" Name="MS.CentralProcessing"
                OID="IGD.MS.CentralProcessing" Purpose="Data Collection" Repeating="No">
                <Description>
                    <TranslatedText xml:lang="en"/>
                </Description>
                <ItemRef ItemOID="IT.MS.CentralProcessing.STUDYID" Mandatory="No" OrderNumber="1"/>
                <ItemRef ItemOID="IT.MS.CentralProcessing.SITEID" Mandatory="No" OrderNumber="2"/>
                <ItemRef ItemOID="IT.MS.CentralProcessing.SUBJID" Mandatory="No" OrderNumber="3"/>
                <ItemRef ItemOID="IT.MS.CentralProcessing.VISIT" Mandatory="No" OrderNumber="4"/>
                <ItemRef ItemOID="IT.MS.CentralProcessing.VISDAT" Mandatory="No" OrderNumber="5"/>
                <ItemRef ItemOID="IT.MS.CentralProcessing.MSPERF" Mandatory="No" OrderNumber="6"/>
                <ItemRef ItemOID="IT.MS.CentralProcessing.MSREFID" Mandatory="No" OrderNumber="7"/>
                <ItemRef ItemOID="IT.MS.CentralProcessing.MSDAT" Mandatory="No" OrderNumber="8"/>
                <ItemRef ItemOID="IT.MS.CentralProcessing.MSTIM" Mandatory="No" OrderNumber="9"/>
                <ItemRef ItemOID="IT.MS.CentralProcessing.MSCAT" Mandatory="No" OrderNumber="10"/>
                <ItemRef ItemOID="IT.MS.CentralProcessing.MSSCAT" Mandatory="No" OrderNumber="11"/>
                <ItemRef ItemOID="IT.MS.CentralProcessing.MSSPEC" Mandatory="No" OrderNumber="12"/>
                <ItemRef ItemOID="IT.MS.CentralProcessing.MSSPCCND" Mandatory="No" OrderNumber="13"/>
                <ItemRef ItemOID="IT.MS.CentralProcessing.MSLOC" Mandatory="No" OrderNumber="14"/>
                <ItemRef ItemOID="IT.MS.CentralProcessing.MSLAT" Mandatory="No" OrderNumber="15"/>
                <ItemRef ItemOID="IT.MS.CentralProcessing.MSDIR" Mandatory="No" OrderNumber="16"/>
                <mdr:Class Name="FINDINGS"/>
            </ItemGroupDef>
            <ItemGroupDef Domain="Microbiology Susceptibility Test" Name="MS.LocalProcessing"
                OID="IGD.MS.LocalProcessing" Purpose="Data Collection" Repeating="No">
                <Description>
                    <TranslatedText xml:lang="en"/>
                </Description>
                <ItemRef ItemOID="IT.MS.LocalProcessing.STUDYID" Mandatory="No" OrderNumber="1"/>
                <ItemRef ItemOID="IT.MS.LocalProcessing.SITEID" Mandatory="No" OrderNumber="2"/>
                <ItemRef ItemOID="IT.MS.LocalProcessing.SUBJID" Mandatory="No" OrderNumber="3"/>
                <ItemRef ItemOID="IT.MS.LocalProcessing.NHOID" Mandatory="No" OrderNumber="4"/>
                <ItemRef ItemOID="IT.MS.LocalProcessing.VISIT" Mandatory="No" OrderNumber="5"/>
                <ItemRef ItemOID="IT.MS.LocalProcessing.VISDAT" Mandatory="No" OrderNumber="6"/>
                <ItemRef ItemOID="IT.MS.LocalProcessing.MSPERF" Mandatory="No" OrderNumber="7"/>
                <ItemRef ItemOID="IT.MS.LocalProcessing.MSREFID" Mandatory="No" OrderNumber="8"/>
                <ItemRef ItemOID="IT.MS.LocalProcessing.MSSPID" Mandatory="No" OrderNumber="9"/>
                <ItemRef ItemOID="IT.MS.LocalProcessing.MSGRPID" Mandatory="No" OrderNumber="8"/>
                <ItemRef ItemOID="IT.MS.LocalProcessing.MSLNKID" Mandatory="No" OrderNumber="10"/>
                <ItemRef ItemOID="IT.MS.LocalProcessing.MSDAT" Mandatory="No" OrderNumber="11"/>
                <ItemRef ItemOID="IT.MS.LocalProcessing.MSTIM" Mandatory="No" OrderNumber="12"/>
                <ItemRef ItemOID="IT.MS.LocalProcessing.MSCAT" Mandatory="No" OrderNumber="13"/>
                <ItemRef ItemOID="IT.MS.LocalProcessing.MSSCAT" Mandatory="No" OrderNumber="14"/>
                <ItemRef ItemOID="IT.MS.LocalProcessing.MSTEST" Mandatory="No" OrderNumber="15"/>
                <ItemRef ItemOID="IT.MS.LocalProcessing.MSTSTDTL" Mandatory="No" OrderNumber="16"/>
                <ItemRef ItemOID="IT.MS.LocalProcessing.MSAGENT" Mandatory="No" OrderNumber="17"/>
                <ItemRef ItemOID="IT.MS.LocalProcessing.MSCONC" Mandatory="No" OrderNumber="18"/>
                <ItemRef ItemOID="IT.MS.LocalProcessing.MSCONCU" Mandatory="No" OrderNumber="19"/>
                <ItemRef ItemOID="IT.MS.LocalProcessing.MSORRES" Mandatory="No" OrderNumber="20"/>
                <ItemRef ItemOID="IT.MS.LocalProcessing.MSORRESU" Mandatory="No" OrderNumber="21"/>
                <ItemRef ItemOID="IT.MS.LocalProcessing.MSCLSIG" Mandatory="No" OrderNumber="22"/>
                <ItemRef ItemOID="IT.MS.LocalProcessing.MSRESCAT" Mandatory="No" OrderNumber="23"/>
                <ItemRef ItemOID="IT.MS.LocalProcessing.MSNAM" Mandatory="No" OrderNumber="24"/>
                <ItemRef ItemOID="IT.MS.LocalProcessing.MSSPEC" Mandatory="No" OrderNumber="25"/>
                <ItemRef ItemOID="IT.MS.LocalProcessing.MSSPCCND" Mandatory="No" OrderNumber="26"/>
                <ItemRef ItemOID="IT.MS.LocalProcessing.MSLOC" Mandatory="No" OrderNumber="27"/>
                <ItemRef ItemOID="IT.MS.LocalProcessing.MSLAT" Mandatory="No" OrderNumber="28"/>
                <ItemRef ItemOID="IT.MS.LocalProcessing.MSDIR" Mandatory="No" OrderNumber="29"/>
                <ItemRef ItemOID="IT.MS.LocalProcessing.MSMETHOD" Mandatory="No" OrderNumber="30"/>
                <ItemRef ItemOID="IT.MS.LocalProcessing.MSEVAL" Mandatory="No" OrderNumber="31"/>
                <mdr:Class Name="FINDINGS"/>
            </ItemGroupDef>
            <ItemGroupDef Domain="Microscopic Findings" Name="MI.CentralProcessing"
                OID="IGD.MI.CentralProcessing" Purpose="Data Collection" Repeating="No">
                <Description>
                    <TranslatedText xml:lang="en"/>
                </Description>
                <ItemRef ItemOID="IT.MI.CentralProcessing.STUDYID" Mandatory="No" OrderNumber="1"/>
                <ItemRef ItemOID="IT.MI.CentralProcessing.SITEID" Mandatory="No" OrderNumber="2"/>
                <ItemRef ItemOID="IT.MI.CentralProcessing.SUBJID" Mandatory="No" OrderNumber="3"/>
                <ItemRef ItemOID="IT.MI.CentralProcessing.VISIT" Mandatory="No" OrderNumber="4"/>
                <ItemRef ItemOID="IT.MI.CentralProcessing.VISDAT" Mandatory="No" OrderNumber="5"/>
                <ItemRef ItemOID="IT.MI.CentralProcessing.MIPERF" Mandatory="No" OrderNumber="6"/>
                <ItemRef ItemOID="IT.MI.CentralProcessing.MIREFID" Mandatory="No" OrderNumber="7"/>
                <ItemRef ItemOID="IT.MI.CentralProcessing.MIDAT" Mandatory="No" OrderNumber="8"/>
                <ItemRef ItemOID="IT.MI.CentralProcessing.MITIM" Mandatory="No" OrderNumber="9"/>
                <ItemRef ItemOID="IT.MI.CentralProcessing.MICAT" Mandatory="No" OrderNumber="10"/>
                <ItemRef ItemOID="IT.MI.CentralProcessing.MISCAT" Mandatory="No" OrderNumber="11"/>
                <ItemRef ItemOID="IT.MI.CentralProcessing.MISPEC" Mandatory="No" OrderNumber="12"/>
                <ItemRef ItemOID="IT.MI.CentralProcessing.MISPCCND" Mandatory="No" OrderNumber="13"/>
                <ItemRef ItemOID="IT.MI.CentralProcessing.MILOC" Mandatory="No" OrderNumber="14"/>
                <ItemRef ItemOID="IT.MI.CentralProcessing.MILAT" Mandatory="No" OrderNumber="15"/>
                <ItemRef ItemOID="IT.MI.CentralProcessing.MIDIR" Mandatory="No" OrderNumber="16"/>
                <mdr:Class Name="FINDINGS"/>
            </ItemGroupDef>
            <ItemGroupDef Domain="Microscopic Findings" Name="MI.LocalProcessing"
                OID="IGD.MI.LocalProcessing" Purpose="Data Collection" Repeating="No">
                <Description>
                    <TranslatedText xml:lang="en"/>
                </Description>
                <ItemRef ItemOID="IT.MI.LocalProcessing.STUDYID" Mandatory="No" OrderNumber="1"/>
                <ItemRef ItemOID="IT.MI.LocalProcessing.SITEID" Mandatory="No" OrderNumber="2"/>
                <ItemRef ItemOID="IT.MI.LocalProcessing.SUBJID" Mandatory="No" OrderNumber="3"/>
                <ItemRef ItemOID="IT.MI.LocalProcessing.VISIT" Mandatory="No" OrderNumber="4"/>
                <ItemRef ItemOID="IT.MI.LocalProcessing.VISDAT" Mandatory="No" OrderNumber="5"/>
                <ItemRef ItemOID="IT.MI.LocalProcessing.MIPERF" Mandatory="No" OrderNumber="6"/>
                <ItemRef ItemOID="IT.MI.LocalProcessing.MIREFID" Mandatory="No" OrderNumber="7"/>
                <ItemRef ItemOID="IT.MI.LocalProcessing.MISPID" Mandatory="No" OrderNumber="8"/>
                <ItemRef ItemOID="IT.MI.LocalProcessing.MIDAT" Mandatory="No" OrderNumber="9"/>
                <ItemRef ItemOID="IT.MI.LocalProcessing.MITIM" Mandatory="No" OrderNumber="10"/>
                <ItemRef ItemOID="IT.MI.LocalProcessing.MICAT" Mandatory="No" OrderNumber="11"/>
                <ItemRef ItemOID="IT.MI.LocalProcessing.MISCAT" Mandatory="No" OrderNumber="12"/>
                <ItemRef ItemOID="IT.MI.LocalProcessing.MITEST" Mandatory="No" OrderNumber="13"/>
                <ItemRef ItemOID="IT.MI.LocalProcessing.MITSTDTL" Mandatory="No" OrderNumber="14"/>
                <ItemRef ItemOID="IT.MI.LocalProcessing.MIORRES" Mandatory="No" OrderNumber="15"/>
                <ItemRef ItemOID="IT.MI.LocalProcessing.MIORRESU" Mandatory="No" OrderNumber="16"/>
                <ItemRef ItemOID="IT.MI.LocalProcessing.MICLSIG" Mandatory="No" OrderNumber="17"/>
                <ItemRef ItemOID="IT.MI.LocalProcessing.MIRESCAT" Mandatory="No" OrderNumber="18"/>
                <ItemRef ItemOID="IT.MI.LocalProcessing.MINAM" Mandatory="No" OrderNumber="19"/>
                <ItemRef ItemOID="IT.MI.LocalProcessing.MISPEC" Mandatory="No" OrderNumber="20"/>
                <ItemRef ItemOID="IT.MI.LocalProcessing.MISPCCND" Mandatory="No" OrderNumber="21"/>
                <ItemRef ItemOID="IT.MI.LocalProcessing.MILOC" Mandatory="No" OrderNumber="22"/>
                <ItemRef ItemOID="IT.MI.LocalProcessing.MILAT" Mandatory="No" OrderNumber="23"/>
                <ItemRef ItemOID="IT.MI.LocalProcessing.MIDIR" Mandatory="No" OrderNumber="24"/>
                <ItemRef ItemOID="IT.MI.LocalProcessing.MIMETHOD" Mandatory="No" OrderNumber="25"/>
                <ItemRef ItemOID="IT.MI.LocalProcessing.MIEVAL" Mandatory="No" OrderNumber="26"/>
                <mdr:Class Name="FINDINGS"/>
            </ItemGroupDef>
            <ItemGroupDef Domain="Pharmacokinetic Concentrations" Name="PC.FixedTimePoints"
                OID="IGD.PC.FixedTimePoints" Purpose="Data Collection" Repeating="No">
                <Description>
                    <TranslatedText xml:lang="en"/>
                </Description>
                <ItemRef ItemOID="IT.PC.FixedTimePoints.STUDYID" Mandatory="No" OrderNumber="1"/>
                <ItemRef ItemOID="IT.PC.FixedTimePoints.SITEID" Mandatory="No" OrderNumber="2"/>
                <ItemRef ItemOID="IT.PC.FixedTimePoints.SUBJID" Mandatory="No" OrderNumber="3"/>
                <ItemRef ItemOID="IT.PC.FixedTimePoints.VISIT" Mandatory="No" OrderNumber="4"/>
                <ItemRef ItemOID="IT.PC.FixedTimePoints.VISDAT" Mandatory="No" OrderNumber="5"/>
                <ItemRef ItemOID="IT.PC.FixedTimePoints.PCPERF" Mandatory="No" OrderNumber="6"/>
                <ItemRef ItemOID="IT.PC.FixedTimePoints.PCSTAT" Mandatory="No" OrderNumber="7"/>
                <ItemRef ItemOID="IT.PC.FixedTimePoints.PCREASND" Mandatory="No" OrderNumber="8"/>
                <ItemRef ItemOID="IT.PC.FixedTimePoints.PCDAT" Mandatory="No" OrderNumber="9"/>
                <ItemRef ItemOID="IT.PC.FixedTimePoints.PCDATFL" Mandatory="No" OrderNumber="10"/>
                <ItemRef ItemOID="IT.PC.FixedTimePoints.PCTIM" Mandatory="No" OrderNumber="11"/>
                <ItemRef ItemOID="IT.PC.FixedTimePoints.PCTPT" Mandatory="No" OrderNumber="12"/>
                <ItemRef ItemOID="IT.PC.FixedTimePoints.PCFAST" Mandatory="No" OrderNumber="13"/>
                <ItemRef ItemOID="IT.PC.FixedTimePoints.PCCOND" Mandatory="No" OrderNumber="14"/>
                <ItemRef ItemOID="IT.PC.FixedTimePoints.PCREFID" Mandatory="No" OrderNumber="15"/>
                <ItemRef ItemOID="IT.PC.FixedTimePoints.PCSPEC" Mandatory="No" OrderNumber="16"/>
                <ItemRef ItemOID="IT.PC.FixedTimePoints.PCTEST" Mandatory="No" OrderNumber="17"/>
                <ItemRef ItemOID="IT.PC.FixedTimePoints.PCORRES" Mandatory="No" OrderNumber="18"/>
                <ItemRef ItemOID="IT.PC.FixedTimePoints.PCORRESU" Mandatory="No" OrderNumber="19"/>
                <mdr:Class Name="FINDINGS"/>
            </ItemGroupDef>
            <ItemGroupDef Domain="Pharmacokinetics Concentrations"
                Name="PC.PKSampleCollectionTimeInterval" OID="IGD.PC.PKSampleCollectionTimeInterval"
                Purpose="Data Collection" Repeating="No">
                <Description>
                    <TranslatedText xml:lang="en"/>
                </Description>
                <ItemRef ItemOID="IT.PC.PKSampleCollectionTimeInterval.STUDYID" Mandatory="No"
                    OrderNumber="1"/>
                <ItemRef ItemOID="IT.PC.PKSampleCollectionTimeInterval.SITEID" Mandatory="No"
                    OrderNumber="2"/>
                <ItemRef ItemOID="IT.PC.PKSampleCollectionTimeInterval.SUBJID" Mandatory="No"
                    OrderNumber="3"/>
                <ItemRef ItemOID="IT.PC.PKSampleCollectionTimeInterval.VISIT" Mandatory="No"
                    OrderNumber="4"/>
                <ItemRef ItemOID="IT.PC.PKSampleCollectionTimeInterval.VISDAT" Mandatory="No"
                    OrderNumber="5"/>
                <ItemRef ItemOID="IT.PC.PKSampleCollectionTimeInterval.PCPERF" Mandatory="No"
                    OrderNumber="6"/>
                <ItemRef ItemOID="IT.PC.PKSampleCollectionTimeInterval.PCREASND" Mandatory="No"
                    OrderNumber="7"/>
                <ItemRef ItemOID="IT.PC.PKSampleCollectionTimeInterval.PCDAT" Mandatory="No"
                    OrderNumber="8"/>
                <ItemRef ItemOID="IT.PC.PKSampleCollectionTimeInterval.PCTIM" Mandatory="No"
                    OrderNumber="9"/>
                <ItemRef ItemOID="IT.PC.PKSampleCollectionTimeInterval.PCENDAT" Mandatory="No"
                    OrderNumber="10"/>
                <ItemRef ItemOID="IT.PC.PKSampleCollectionTimeInterval.PCENTIM" Mandatory="No"
                    OrderNumber="11"/>
                <ItemRef ItemOID="IT.PC.PKSampleCollectionTimeInterval.PCTPT" Mandatory="No"
                    OrderNumber="12"/>
                <ItemRef ItemOID="IT.PC.PKSampleCollectionTimeInterval.PCFAST" Mandatory="No"
                    OrderNumber="13"/>
                <ItemRef ItemOID="IT.PC.PKSampleCollectionTimeInterval.PCCOND" Mandatory="No"
                    OrderNumber="14"/>
                <ItemRef ItemOID="IT.PC.PKSampleCollectionTimeInterval.PCREFID" Mandatory="No"
                    OrderNumber="15"/>
                <ItemRef ItemOID="IT.PC.PKSampleCollectionTimeInterval.PCSPEC" Mandatory="No"
                    OrderNumber="16"/>
                <ItemRef ItemOID="IT.PC.PKSampleCollectionTimeInterval.PCTEST" Mandatory="No"
                    OrderNumber="17"/>
                <ItemRef ItemOID="IT.PC.PKSampleCollectionTimeInterval.PCORRES" Mandatory="No"
                    OrderNumber="18"/>
                <ItemRef ItemOID="IT.PC.PKSampleCollectionTimeInterval.PCORRESU" Mandatory="No"
                    OrderNumber="19"/>
                <mdr:Class Name="FINDINGS"/>
            </ItemGroupDef>
            <ItemGroupDef Domain="Physical Examination" Name="PE.Traditional"
                OID="IGD.PE.Traditional" Purpose="Data Collection" Repeating="No">
                <Description>
                    <TranslatedText xml:lang="en"/>
                </Description>
                <ItemRef ItemOID="IT.PE.Traditional.STUDYID" Mandatory="No" OrderNumber="1"/>
                <ItemRef ItemOID="IT.PE.Traditional.SITEID" Mandatory="No" OrderNumber="2"/>
                <ItemRef ItemOID="IT.PE.Traditional.SUBJID" Mandatory="No" OrderNumber="3"/>
                <ItemRef ItemOID="IT.PE.Traditional.VISIT" Mandatory="No" OrderNumber="4"/>
                <ItemRef ItemOID="IT.PE.Traditional.VISDAT" Mandatory="No" OrderNumber="5"/>
                <ItemRef ItemOID="IT.PE.Traditional.PEPERF" Mandatory="No" OrderNumber="6"/>
                <ItemRef ItemOID="IT.PE.Traditional.PECAT" Mandatory="No" OrderNumber="7"/>
                <ItemRef ItemOID="IT.PE.Traditional.PESCAT" Mandatory="No" OrderNumber="8"/>
                <ItemRef ItemOID="IT.PE.Traditional.PEDAT" Mandatory="No" OrderNumber="9"/>
                <ItemRef ItemOID="IT.PE.Traditional.PETIM" Mandatory="No" OrderNumber="10"/>
                <ItemRef ItemOID="IT.PE.Traditional.PESPID" Mandatory="No" OrderNumber="11"/>
                <ItemRef ItemOID="IT.PE.Traditional.PETEST" Mandatory="No" OrderNumber="12"/>
                <ItemRef ItemOID="IT.PE.Traditional.PERES" Mandatory="No" OrderNumber="13"/>
                <ItemRef ItemOID="IT.PE.Traditional.PEDESC" Mandatory="No" OrderNumber="14"/>
                <ItemRef ItemOID="IT.PE.Traditional.PECLSIG" Mandatory="No" OrderNumber="15"/>
                <ItemRef ItemOID="IT.PE.Traditional.PEEVAL" Mandatory="No" OrderNumber="16"/>
                <ItemRef ItemOID="IT.PE.Traditional.PEREASND" Mandatory="No" OrderNumber="17"/>
                <ItemRef ItemOID="IT.PE.Traditional.PEBODSYS" Mandatory="No" OrderNumber="18"/>
                <ItemRef ItemOID="IT.PE.Traditional.PEMODIFY" Mandatory="No" OrderNumber="19"/>
                <ItemRef ItemOID="IT.PE.Traditional.PELOC" Mandatory="No" OrderNumber="20"/>
                <ItemRef ItemOID="IT.PE.Traditional.PELAT" Mandatory="No" OrderNumber="21"/>
                <ItemRef ItemOID="IT.PE.Traditional.PEDIR" Mandatory="No" OrderNumber="22"/>
                <ItemRef ItemOID="IT.PE.Traditional.PEPORTOT" Mandatory="No" OrderNumber="23"/>
                <ItemRef ItemOID="IT.PE.Traditional.PEMETHOD" Mandatory="No" OrderNumber="24"/>
                <mdr:Class Name="FINDINGS"/>
            </ItemGroupDef>
            <ItemGroupDef Domain="Subject Characteristics" Name="SC.HorizontalGeneric"
                OID="IGD.SC.HorizontalGeneric" Purpose="Data Collection" Repeating="No">
                <Description>
                    <TranslatedText xml:lang="en"/>
                </Description>
                <ItemRef ItemOID="IT.SC.STUDYID" Mandatory="No" OrderNumber="1"/>
                <ItemRef ItemOID="IT.SC.SITEID" Mandatory="No" OrderNumber="2"/>
                <ItemRef ItemOID="IT.SC.SUBJID" Mandatory="No" OrderNumber="3"/>
                <ItemRef ItemOID="IT.SC.VISIT" Mandatory="No" OrderNumber="4"/>
                <ItemRef ItemOID="IT.SC.VISDAT" Mandatory="No" OrderNumber="5"/>
                <ItemRef ItemOID="IT.SC.SCCAT" Mandatory="No" OrderNumber="6"/>
                <ItemRef ItemOID="IT.SC.SCSCAT" Mandatory="No" OrderNumber="7"/>
                <ItemRef ItemOID="IT.SC.SCPERF" Mandatory="No" OrderNumber="8"/>
                <ItemRef ItemOID="IT.SC.SCSPID" Mandatory="No" OrderNumber="9"/>
                <ItemRef ItemOID="IT.SC.SCDAT" Mandatory="No" OrderNumber="10"/>
                <ItemRef ItemOID="IT.SC.SCTEST" Mandatory="No" OrderNumber="11"/>
                <ItemRef ItemOID="IT.SC.SCORRES" Mandatory="No" OrderNumber="12"/>
                <ItemRef ItemOID="IT.SC.HorizontalGeneric.STUDYID" Mandatory="No" OrderNumber="13"/>
                <ItemRef ItemOID="IT.SC.HorizontalGeneric.SITEID" Mandatory="No" OrderNumber="14"/>
                <ItemRef ItemOID="IT.SC.HorizontalGeneric.SUBJID" Mandatory="No" OrderNumber="15"/>
                <ItemRef ItemOID="IT.SC.HorizontalGeneric.VISIT" Mandatory="No" OrderNumber="16"/>
                <ItemRef ItemOID="IT.SC.HorizontalGeneric.VISDAT" Mandatory="No" OrderNumber="17"/>
                <ItemRef ItemOID="IT.SC.HorizontalGeneric.[SCTESTCD]_SCCAT" Mandatory="No"
                    OrderNumber="18"/>
                <ItemRef ItemOID="IT.SC.HorizontalGeneric.[SCTESTCD]_SCSCAT" Mandatory="No"
                    OrderNumber="19"/>
                <ItemRef ItemOID="IT.SC.HorizontalGeneric.[SCTESTCD]_SCPERF" Mandatory="No"
                    OrderNumber="20"/>
                <ItemRef ItemOID="IT.SC.HorizontalGeneric.SCGRPID" Mandatory="No" OrderNumber="21"/>
                <ItemRef ItemOID="IT.SC.HorizontalGeneric.[SCTESTCD]_SCORRES" Mandatory="No"
                    OrderNumber="22"/>
                <mdr:Class Name="FINDINGS"/>
            </ItemGroupDef>
            <ItemGroupDef Domain="Vital Signs" Name="VS.HorizontalGeneric"
                OID="IGD.VS.HorizontalGeneric" Purpose="Data Collection" Repeating="No">
                <Description>
                    <TranslatedText xml:lang="en"/>
                </Description>
                <ItemRef ItemOID="IT.VS.STUDYID" Mandatory="No" OrderNumber="1"/>
                <ItemRef ItemOID="IT.VS.SITEID" Mandatory="No" OrderNumber="2"/>
                <ItemRef ItemOID="IT.VS.SUBJID" Mandatory="No" OrderNumber="3"/>
                <ItemRef ItemOID="IT.VS.VISIT" Mandatory="No" OrderNumber="4"/>
                <ItemRef ItemOID="IT.VS.VISDAT" Mandatory="No" OrderNumber="5"/>
                <ItemRef ItemOID="IT.VS.VSPERF" Mandatory="No" OrderNumber="6"/>
                <ItemRef ItemOID="IT.VS.VSDAT" Mandatory="No" OrderNumber="7"/>
                <ItemRef ItemOID="IT.VS.VSTIM" Mandatory="No" OrderNumber="8"/>
                <ItemRef ItemOID="IT.VS.VSSPID" Mandatory="No" OrderNumber="9"/>
                <ItemRef ItemOID="IT.VS.VSTPT" Mandatory="No" OrderNumber="10"/>
                <ItemRef ItemOID="IT.VS.VSCAT" Mandatory="No" OrderNumber="11"/>
                <ItemRef ItemOID="IT.VS.VSSCAT" Mandatory="No" OrderNumber="12"/>
                <ItemRef ItemOID="IT.VS.VSREPNUM" Mandatory="No" OrderNumber="13"/>
                <ItemRef ItemOID="IT.VS.VSTEST" Mandatory="No" OrderNumber="14"/>
                <ItemRef ItemOID="IT.VS.VSSTAT" Mandatory="No" OrderNumber="15"/>
                <ItemRef ItemOID="IT.VS.VSORRES" Mandatory="No" OrderNumber="16"/>
                <ItemRef ItemOID="IT.VS.VSORRESU" Mandatory="No" OrderNumber="17"/>
                <ItemRef ItemOID="IT.VS.VSCLSIG" Mandatory="No" OrderNumber="18"/>
                <ItemRef ItemOID="IT.VS.VSLOC" Mandatory="No" OrderNumber="19"/>
                <ItemRef ItemOID="IT.VS.VSPOS" Mandatory="No" OrderNumber="20"/>
                <ItemRef ItemOID="IT.VS.VSDIR" Mandatory="No" OrderNumber="21"/>
                <ItemRef ItemOID="IT.VS.VSLAT" Mandatory="No" OrderNumber="22"/>
                <ItemRef ItemOID="IT.VS.HorizontalGeneric.STUDYID" Mandatory="No" OrderNumber="23"/>
                <ItemRef ItemOID="IT.VS.HorizontalGeneric.SITEID" Mandatory="No" OrderNumber="24"/>
                <ItemRef ItemOID="IT.VS.HorizontalGeneric.SUBJID" Mandatory="No" OrderNumber="25"/>
                <ItemRef ItemOID="IT.VS.HorizontalGeneric.VISIT" Mandatory="No" OrderNumber="26"/>
                <ItemRef ItemOID="IT.VS.HorizontalGeneric.VISDAT" Mandatory="No" OrderNumber="27"/>
                <ItemRef ItemOID="IT.VS.HorizontalGeneric.[VSTESTCD]_VSPERF" Mandatory="No"
                    OrderNumber="28"/>
                <ItemRef ItemOID="IT.VS.HorizontalGeneric.[VSTESTCD]_VSDAT" Mandatory="No"
                    OrderNumber="29"/>
                <ItemRef ItemOID="IT.VS.HorizontalGeneric.[VSTESTCD]_VSTIM" Mandatory="No"
                    OrderNumber="30"/>
                <ItemRef ItemOID="IT.VS.HorizontalGeneric.VSCAT" Mandatory="No" OrderNumber="31"/>
                <ItemRef ItemOID="IT.VS.HorizontalGeneric.VSSCAT" Mandatory="No" OrderNumber="32"/>
                <ItemRef ItemOID="IT.VS.HorizontalGeneric.VSGRPID" Mandatory="No" OrderNumber="33"/>
                <ItemRef ItemOID="IT.VS.HorizontalGeneric.[VSTESTCD]_VSTPT" Mandatory="No"
                    OrderNumber="34"/>
                <ItemRef ItemOID="IT.VS.HorizontalGeneric.[VSTESTCD]_VSSTAT" Mandatory="No"
                    OrderNumber="35"/>
                <ItemRef ItemOID="IT.VS.HorizontalGeneric.[VSTESTCD]_VSORRES" Mandatory="No"
                    OrderNumber="36"/>
                <ItemRef ItemOID="IT.VS.HorizontalGeneric.[VSTESTCD]_VSORRESU" Mandatory="No"
                    OrderNumber="37"/>
                <ItemRef ItemOID="IT.VS.HorizontalGeneric.[VSTESTCD]_VSCLSIG" Mandatory="No"
                    OrderNumber="38"/>
                <ItemRef ItemOID="IT.VS.HorizontalGeneric.[VSTESTCD]_VSPOS" Mandatory="No"
                    OrderNumber="39"/>
                <ItemRef ItemOID="IT.VS.HorizontalGeneric.[VSTESTCD]_VSLOC" Mandatory="No"
                    OrderNumber="40"/>
                <ItemRef ItemOID="IT.VS.HorizontalGeneric.[VSTESTCD]_VSLAT" Mandatory="No"
                    OrderNumber="41"/>
                <mdr:Class Name="FINDINGS"/>
            </ItemGroupDef>
            <ItemGroupDef Domain="Demographics" Name="DM.BirthDateCollection"
                OID="IGD.DM.BirthDateCollection" Purpose="Data Collection" Repeating="No">
                <Description>
                    <TranslatedText xml:lang="en"/>
                </Description>
                <ItemRef ItemOID="IT.DM.BirthDateCollection.STUDYID" Mandatory="No" OrderNumber="1"/>
                <ItemRef ItemOID="IT.DM.BirthDateCollection.SITEID" Mandatory="No" OrderNumber="2"/>
                <ItemRef ItemOID="IT.DM.BirthDateCollection.SUBJID" Mandatory="No" OrderNumber="3"/>
                <ItemRef ItemOID="IT.DM.BirthDateCollection.BRTHDD" Mandatory="No" OrderNumber="4"/>
                <ItemRef ItemOID="IT.DM.BirthDateCollection.BRTHMO" Mandatory="No" OrderNumber="5"/>
                <ItemRef ItemOID="IT.DM.BirthDateCollection.BRTHYY" Mandatory="No" OrderNumber="6"/>
                <ItemRef ItemOID="IT.DM.BirthDateCollection.BRTHTIM" Mandatory="No" OrderNumber="7"/>
                <ItemRef ItemOID="IT.DM.BirthDateCollection.AGE" Mandatory="No" OrderNumber="8"/>
                <ItemRef ItemOID="IT.DM.BirthDateCollection.AGEU" Mandatory="No" OrderNumber="9"/>
                <ItemRef ItemOID="IT.DM.BirthDateCollection.DMDAT" Mandatory="No" OrderNumber="10"/>
                <ItemRef ItemOID="IT.DM.BirthDateCollection.SEX" Mandatory="No" OrderNumber="11"/>
                <ItemRef ItemOID="IT.DM.BirthDateCollection.ETHNIC" Mandatory="No" OrderNumber="12"/>
                <ItemRef ItemOID="IT.DM.BirthDateCollection.CETHNIC" Mandatory="No" OrderNumber="13"/>
                <ItemRef ItemOID="IT.DM.BirthDateCollection.RACE" Mandatory="No" OrderNumber="14"/>
                <ItemRef ItemOID="IT.DM.BirthDateCollection.CRACE" Mandatory="No" OrderNumber="15"/>
                <ItemRef ItemOID="IT.DM.BirthDateCollection.RACEOTH" Mandatory="No" OrderNumber="16"/>
                <mdr:Class Name="SPECIAL PURPOSE"/>
            </ItemGroupDef>
            <ItemGroupDef Domain="Demographics" Name="DM.BirthDateCollectionSingleDate"
                OID="IGD.DM.BirthDateCollectionSingleDate" Purpose="Data Collection" Repeating="No">
                <Description>
                    <TranslatedText xml:lang="en"/>
                </Description>
                <ItemRef ItemOID="IT.DM.BirthDateCollectionSingleDate.STUDYID" Mandatory="No"
                    OrderNumber="1"/>
                <ItemRef ItemOID="IT.DM.BirthDateCollectionSingleDate.SITEID" Mandatory="No"
                    OrderNumber="2"/>
                <ItemRef ItemOID="IT.DM.BirthDateCollectionSingleDate.SUBJID" Mandatory="No"
                    OrderNumber="3"/>
                <ItemRef ItemOID="IT.DM.BirthDateCollectionSingleDate.BRTHDAT" Mandatory="No"
                    OrderNumber="4"/>
                <ItemRef ItemOID="IT.DM.BirthDateCollectionSingleDate.BRTHTIM" Mandatory="No"
                    OrderNumber="5"/>
                <ItemRef ItemOID="IT.DM.BirthDateCollectionSingleDate.AGE" Mandatory="No"
                    OrderNumber="6"/>
                <ItemRef ItemOID="IT.DM.BirthDateCollectionSingleDate.AGEU" Mandatory="No"
                    OrderNumber="7"/>
                <ItemRef ItemOID="IT.DM.BirthDateCollectionSingleDate.DMDAT" Mandatory="No"
                    OrderNumber="8"/>
                <ItemRef ItemOID="IT.DM.BirthDateCollectionSingleDate.SEX" Mandatory="No"
                    OrderNumber="9"/>
                <ItemRef ItemOID="IT.DM.BirthDateCollectionSingleDate.ETHNIC" Mandatory="No"
                    OrderNumber="10"/>
                <ItemRef ItemOID="IT.DM.BirthDateCollectionSingleDate.CETHNIC" Mandatory="No"
                    OrderNumber="11"/>
                <ItemRef ItemOID="IT.DM.BirthDateCollectionSingleDate.RACE" Mandatory="No"
                    OrderNumber="12"/>
                <ItemRef ItemOID="IT.DM.BirthDateCollectionSingleDate.CRACE" Mandatory="No"
                    OrderNumber="13"/>
                <ItemRef ItemOID="IT.DM.BirthDateCollectionSingleDate.RACEOTH" Mandatory="No"
                    OrderNumber="14"/>
                <mdr:Class Name="SPECIAL PURPOSE"/>
            </ItemGroupDef>
            <ItemDef DataType="text" Name="STUDYID" OID="IT.AG.STUDYID" mdr:Core="HR"
                mdr:SubmissionDataType="Char">
                <Description>
                    <TranslatedText xml:lang="en">Study Identifier</TranslatedText>
                </Description>
                <Question>
                    <TranslatedText xml:lang="en">What is the study identifier?</TranslatedText>
                </Question>
                <Alias Context="sdtmigDatasetMappingTarget_0" Name="AG.STUDYID"/>
                <mdr:Prompt>
                    <TranslatedText xml:lang="en">[Protocol/Study]</TranslatedText>
                </mdr:Prompt>
                <mdr:ImplementationNotes>
                    <TranslatedText xml:lang="en">Although this field is not typically captured on a
                        CRF, it should be displayed clearly on the CRF and/or in the EDC system.
                        This field can be included into the database or populated during SDTM-based
                        dataset creation before submission.</TranslatedText>
                </mdr:ImplementationNotes>
                <mdr:MappingInstructions>
                    <TranslatedText xml:lang="en">Maps directly to the SDTMIG variable listed in the
                        SDTMIG Target column.</TranslatedText>
                </mdr:MappingInstructions>
                <mdr:Definition>
                    <TranslatedText xml:lang="en">A unique identifier for a study.</TranslatedText>
                </mdr:Definition>
            </ItemDef>
            <ItemDef DataType="text" Name="SITEID" OID="IT.AG.SITEID" mdr:Core="HR"
                mdr:SubmissionDataType="Char">
                <Description>
                    <TranslatedText xml:lang="en">Study Site Identifier</TranslatedText>
                </Description>
                <Question>
                    <TranslatedText xml:lang="en">What is the site identifier?</TranslatedText>
                </Question>
                <mdr:Prompt>
                    <TranslatedText xml:lang="en">Site (Identifier)</TranslatedText>
                </mdr:Prompt>
                <mdr:ImplementationNotes>
                    <TranslatedText xml:lang="en">Paper: This is typically pre-printed in the header
                        of each CRF page for single site studies. For studies with multiple sites,
                        this field may be left blank so that the number can be recorded by the site,
                        or it may be pre-printed on CRFs that are shipped to each site. EDC: This
                        should be pre-populated.</TranslatedText>
                </mdr:ImplementationNotes>
                <mdr:MappingInstructions>
                    <TranslatedText xml:lang="en">Maps directly to the SDTMIG variable listed in the
                        SDTMIG Target column.</TranslatedText>
                </mdr:MappingInstructions>
                <mdr:Definition>
                    <TranslatedText xml:lang="en">A unique identifier for a site within a
                        study.</TranslatedText>
                </mdr:Definition>
            </ItemDef>
            <ItemDef DataType="text" Name="SUBJID" OID="IT.AG.SUBJID" mdr:Core="HR"
                mdr:SubmissionDataType="Char">
                <Description>
                    <TranslatedText xml:lang="en">Subject Identifier for the Study</TranslatedText>
                </Description>
                <Question>
                    <TranslatedText xml:lang="en">What [is/was] the (study) [subject/participant]
                        identifier?</TranslatedText>
                </Question>
                <Alias Context="sdtmigDatasetMappingTarget_0" Name="DM.SUBJID"/>
                <mdr:Prompt>
                    <TranslatedText xml:lang="en">[Subject/Participant]
                        (Identifier)</TranslatedText>
                </mdr:Prompt>
                <mdr:CRFCompletionInstructions>
                    <TranslatedText xml:lang="en">Record the identifier for the
                        subject.</TranslatedText>
                </mdr:CRFCompletionInstructions>
                <mdr:ImplementationNotes>
                    <TranslatedText xml:lang="en">Paper: This is typically recorded in the header of
                        each CRF page. EDC: The subject identifiers may be system generated. This
                        CDASH variable is typically collected in all CDASH domains. However, this
                        CDASH variable is populated only in the SDTM DM domain. For more
                        information, refer to the SDTMIG.</TranslatedText>
                </mdr:ImplementationNotes>
                <mdr:MappingInstructions>
                    <TranslatedText xml:lang="en">Maps directly to the SDTMIG variable listed in the
                        SDTMIG Target column.</TranslatedText>
                </mdr:MappingInstructions>
                <mdr:Definition>
                    <TranslatedText xml:lang="en">A unique subject identifier within a site and a
                        study.</TranslatedText>
                </mdr:Definition>
            </ItemDef>
            <ItemDef DataType="text" Name="AGCAT" OID="IT.AG.AGCAT" mdr:Core="O"
                mdr:SubmissionDataType="Char">
                <Description>
                    <TranslatedText xml:lang="en">Category for Agent</TranslatedText>
                </Description>
                <Question>
                    <TranslatedText xml:lang="en">What is the category for the [procedure/assessment
                        agent]?</TranslatedText>
                </Question>
                <Alias Context="sdtmigDatasetMappingTarget_0" Name="AG.AGCAT"/>
                <mdr:Prompt>
                    <TranslatedText xml:lang="en">Procedure Agent Category; NULL</TranslatedText>
                </mdr:Prompt>
                <mdr:CRFCompletionInstructions>
                    <TranslatedText xml:lang="en">Record the procedure agent category, if not
                        pre-printed on the CRF.</TranslatedText>
                </mdr:CRFCompletionInstructions>
                <mdr:ImplementationNotes>
                    <TranslatedText xml:lang="en">Sponsor-defined controlled terminology. This would
                        most commonly be either a heading or a pre-printed category value on the
                        CRF, not a question to which the site would provide an answer. If a question
                        is asked, the response would typically be a sponsor-defined codelist. If the
                        form is laid out as a grid, then words such as "Category" can be included as
                        the column header.</TranslatedText>
                </mdr:ImplementationNotes>
                <mdr:MappingInstructions>
                    <TranslatedText xml:lang="en">Maps directly to the SDTMIG variable listed in the
                        SDTMIG Target column.</TranslatedText>
                </mdr:MappingInstructions>
                <mdr:Definition>
                    <TranslatedText xml:lang="en">A grouping of topic-variable values based on
                        user-defined characteristics.</TranslatedText>
                </mdr:Definition>
            </ItemDef>
            <ItemDef DataType="text" Name="AGSCAT" OID="IT.AG.AGSCAT" mdr:Core="O"
                mdr:SubmissionDataType="Char">
                <Description>
                    <TranslatedText xml:lang="en">Subcategory for Agent</TranslatedText>
                </Description>
                <Question>
                    <TranslatedText xml:lang="en">What is the subcategory for the
                        [procedure/assessment agent]?</TranslatedText>
                </Question>
                <Alias Context="sdtmigDatasetMappingTarget_0" Name="AG.AGSCAT"/>
                <mdr:Prompt>
                    <TranslatedText xml:lang="en">Procedure Agent Subcategory; NULL</TranslatedText>
                </mdr:Prompt>
                <mdr:CRFCompletionInstructions>
                    <TranslatedText xml:lang="en">Record the procedure agent subcategory, if not
                        pre-printed on the CRF.</TranslatedText>
                </mdr:CRFCompletionInstructions>
                <mdr:ImplementationNotes>
                    <TranslatedText xml:lang="en">Sponsor-defined controlled terminology. This would
                        most commonly be pre-printed on the CRF or screen and pre-populated in the
                        data management system. This is not typically a question to which the site
                        would provide an answer.</TranslatedText>
                </mdr:ImplementationNotes>
                <mdr:MappingInstructions>
                    <TranslatedText xml:lang="en">Maps directly to the SDTMIG variable listed in the
                        SDTMIG Target column.</TranslatedText>
                </mdr:MappingInstructions>
                <mdr:Definition>
                    <TranslatedText xml:lang="en">A sub-division of the AGCAT values based on
                        user-defined characteristics.</TranslatedText>
                </mdr:Definition>
            </ItemDef>
            <ItemDef DataType="text" Name="AGYN" OID="IT.AG.AGYN" mdr:Core="O"
                mdr:SubmissionDataType="Char">
                <Description>
                    <TranslatedText xml:lang="en">Any Procedure Agent Taken</TranslatedText>
                </Description>
                <Question>
                    <TranslatedText xml:lang="en">[Were/Was] there any [procedure/assessment
                        agent(s)] taken/administered?</TranslatedText>
                </Question>
                <CodeListRef CodeListOID="CL.C66742"/>
                <mdr:Prompt>
                    <TranslatedText xml:lang="en">Any procedure agents</TranslatedText>
                </mdr:Prompt>
                <mdr:CRFCompletionInstructions>
                    <TranslatedText xml:lang="en">Indicate if the subject was administered any
                        procedure agents. If Yes, include the appropriate details where indicated on
                        the CRF.</TranslatedText>
                </mdr:CRFCompletionInstructions>
                <mdr:ImplementationNotes>
                    <TranslatedText xml:lang="en">The intent/purpose of collecting this field is to
                        help with data cleaning and monitoring. It provides verification that all
                        other fields on the CRF were deliberately left blank.</TranslatedText>
                </mdr:ImplementationNotes>
                <mdr:MappingInstructions>
                    <TranslatedText xml:lang="en">Does not map to an SDTMIG variable. The SDTM
                        annotated CRF indicates that this field is NOT SUBMITTED.</TranslatedText>
                </mdr:MappingInstructions>
                <mdr:Definition>
                    <TranslatedText xml:lang="en">An indication of whether any procedure/assessment
                        agent(s) were administered.</TranslatedText>
                </mdr:Definition>
            </ItemDef>
            <ItemDef DataType="text" Name="AGSPID" OID="IT.AG.AGSPID" mdr:Core="O"
                mdr:SubmissionDataType="Char">
                <Description>
                    <TranslatedText xml:lang="en">AG Sponsor-Defined Identifier</TranslatedText>
                </Description>
                <Question>
                    <TranslatedText xml:lang="en">[Sponsor defined question]</TranslatedText>
                </Question>
                <Alias Context="sdtmigDatasetMappingTarget_0" Name="AG.AGSPID"/>
                <mdr:Prompt>
                    <TranslatedText xml:lang="en">[Sponsor defined]</TranslatedText>
                </mdr:Prompt>
                <mdr:CRFCompletionInstructions>
                    <TranslatedText xml:lang="en">If collected on the CRF, sponsor may insert
                        instructions to ensure each record has a unique identifier.</TranslatedText>
                </mdr:CRFCompletionInstructions>
                <mdr:ImplementationNotes>
                    <TranslatedText xml:lang="en">Because SPID is a sponsor-defined identifier,
                        conformance to Question Text or Item Prompt is not applicable. Typically
                        used as an identifier in a data query to communicate clearly to the site the
                        specific record in question or to reconcile procedure agent records with AEs
                        and/or MH. May be used to record pre-printed number (e.g. line number,
                        record number) on the CRF. This field may be populated by the sponsor's data
                        collection system.</TranslatedText>
                </mdr:ImplementationNotes>
                <mdr:MappingInstructions>
                    <TranslatedText xml:lang="en">Maps directly to the SDTMIG variable listed in the
                        SDTMIG Target column. May be used to create RELREC to link this record with
                        a record in another domain.</TranslatedText>
                </mdr:MappingInstructions>
                <mdr:Definition>
                    <TranslatedText xml:lang="en">A sponsor-defined identifier. In CDASH, this is
                        typically used for pre-printed or auto-generated numbers on the CRF, or any
                        other type of identifier that does not already have a defined CDASH
                        identifier field.</TranslatedText>
                </mdr:Definition>
            </ItemDef>
            <ItemDef DataType="text" Name="AGTRT" OID="IT.AG.AGTRT" mdr:Core="HR"
                mdr:SubmissionDataType="Char">
                <Description>
                    <TranslatedText xml:lang="en">Reported Agent Name</TranslatedText>
                </Description>
                <Question>
                    <TranslatedText xml:lang="en">What was the [procedure/assessment agent]
                        [name/term]?</TranslatedText>
                </Question>
                <Alias Context="sdtmigDatasetMappingTarget_0" Name="AG.AGTRT"/>
                <mdr:Prompt>
                    <TranslatedText xml:lang="en">[Procedure/Assessment Agent]</TranslatedText>
                </mdr:Prompt>
                <mdr:CRFCompletionInstructions>
                    <TranslatedText xml:lang="en">Record only 1 procedure agent per line. Provide
                        the full trade or proprietary name of the procedure agent; otherwise the
                        generic name may be recorded.</TranslatedText>
                </mdr:CRFCompletionInstructions>
                <mdr:ImplementationNotes>
                    <TranslatedText xml:lang="en">In most cases, the verbatim drug names or
                        treatment will be coded to a standard dictionary (e.g., WHODrug) after the
                        data have been collected on the CRF. For the collection of verbatim
                        procedure agents, the recommendation is to ask sites to provide the full
                        trade or proprietary name since it is more exact than the generic. The full
                        trade name provides the base generic and the appropriate salt for that
                        particular drug. In addition, for coding purposes it helps with Anatomical
                        Therapeutic Chemical (ATC) classification system code selection. For
                        example, Tylenol with codeine #1 has a different ATC code than Tylenol with
                        codeine #3.</TranslatedText>
                </mdr:ImplementationNotes>
                <mdr:MappingInstructions>
                    <TranslatedText xml:lang="en">Maps directly to the SDTMIG variable listed in the
                        SDTMIG Target column.</TranslatedText>
                </mdr:MappingInstructions>
                <mdr:Definition>
                    <TranslatedText xml:lang="en">Verbatim name of procedure/assessment agent
                        administered.</TranslatedText>
                </mdr:Definition>
            </ItemDef>
            <ItemDef DataType="text" Name="AGPRESP" OID="IT.AG.AGPRESP" mdr:Core="O"
                mdr:SubmissionDataType="Char">
                <Description>
                    <TranslatedText xml:lang="en">AG Pre-Specified</TranslatedText>
                </Description>
                <CodeListRef CodeListOID="CL.C66742"/>
                <Alias Context="sdtmigDatasetMappingTarget_0" Name="AG.AGPRESP"/>
                <mdr:ImplementationNotes>
                    <TranslatedText xml:lang="en">For pre-specified interventions, a hidden field on
                        a CRF defaulted to "Y", or added during the SDTM dataset creation. If a
                        study collects both pre-specified and free-text interventions, the value of
                        AGPRESP should be "Y" for all prespecified interventions and null for
                        interventions reported as free text.</TranslatedText>
                </mdr:ImplementationNotes>
                <mdr:MappingInstructions>
                    <TranslatedText xml:lang="en">Maps directly to the SDTMIG variable listed in the
                        SDTMIG Target column.</TranslatedText>
                </mdr:MappingInstructions>
                <mdr:Definition>
                    <TranslatedText xml:lang="en">An indication that a specific procedure/assessment
                        agent or group of agents is pre-specified on a CRF.</TranslatedText>
                </mdr:Definition>
            </ItemDef>
            <ItemDef DataType="text" Name="AGOCCUR" OID="IT.AG.AGOCCUR" mdr:Core="O"
                mdr:SubmissionDataType="Char">
                <Description>
                    <TranslatedText xml:lang="en">AG Occurrence</TranslatedText>
                </Description>
                <Question>
                    <TranslatedText xml:lang="en">[Has/Was] the subject (been) administered the
                        [procedure/assessment agent]?</TranslatedText>
                </Question>
                <CodeListRef CodeListOID="CL.C66742"/>
                <Alias Context="sdtmigDatasetMappingTarget_0" Name="AG.AGOCCUR"/>
                <mdr:Prompt>
                    <TranslatedText xml:lang="en">[AGTRT]</TranslatedText>
                </mdr:Prompt>
                <mdr:CRFCompletionInstructions>
                    <TranslatedText xml:lang="en">Indicate if the procedure agent was administered,
                        by checking Yes or No.</TranslatedText>
                </mdr:CRFCompletionInstructions>
                <mdr:ImplementationNotes>
                    <TranslatedText xml:lang="en">AGOCCUR is used to report the occurrence of a
                        pre-specified procedure agent. AGOCCUR is not used for spontaneously
                        free-text reported procedure agent(s). The site should be able to indicate
                        that the response was not asked or answered.</TranslatedText>
                </mdr:ImplementationNotes>
                <mdr:MappingInstructions>
                    <TranslatedText xml:lang="en">Maps directly to the SDTMIG variable listed in the
                        SDTMIG Target column. If the response was not asked or answered, populate
                        the SDTMIG variable AGSTAT with "NOT DONE".</TranslatedText>
                </mdr:MappingInstructions>
                <mdr:Definition>
                    <TranslatedText xml:lang="en">An indication whether the given
                        procedure/assessment agent or group of agents was administered when
                        information about the occurrence of a specific procedure/assessment agent is
                        solicited.</TranslatedText>
                </mdr:Definition>
            </ItemDef>
            <ItemDef DataType="double" Name="AGDOSE" OID="IT.AG.AGDOSE" mdr:Core="O"
                mdr:SubmissionDataType="Num">
                <Description>
                    <TranslatedText xml:lang="en">AG Dose per Administration</TranslatedText>
                </Description>
                <Question>
                    <TranslatedText xml:lang="en">What was the individual dose per administration of
                        the [procedure/assessment agent]?</TranslatedText>
                </Question>
                <Alias Context="sdtmigDatasetMappingTarget_0" Name="AG.AGDOSE"/>
                <mdr:Prompt>
                    <TranslatedText xml:lang="en">[Dose/Amount] (per
                        administration)</TranslatedText>
                </mdr:Prompt>
                <mdr:CRFCompletionInstructions>
                    <TranslatedText xml:lang="en">Record the dose of the [procedure agent] taken per
                        administration (e.g., 200).</TranslatedText>
                </mdr:CRFCompletionInstructions>
                <mdr:ImplementationNotes>
                    <TranslatedText xml:lang="en">Used when the dose/amount administered has only
                        numeric entries. If non-numeric entries are possible, use the CDASH field
                        AGDSTXT.</TranslatedText>
                </mdr:ImplementationNotes>
                <mdr:MappingInstructions>
                    <TranslatedText xml:lang="en">Maps directly to the SDTMIG variable listed in the
                        SDTMIG Target column.</TranslatedText>
                </mdr:MappingInstructions>
                <mdr:Definition>
                    <TranslatedText xml:lang="en">The dose of procedure/assessment agent (e.g.,
                        --TRT ) given at one time represented as a numeric value.</TranslatedText>
                </mdr:Definition>
            </ItemDef>
            <ItemDef DataType="text" Name="AGDSTXT" OID="IT.AG.AGDSTXT" mdr:Core="O"
                mdr:SubmissionDataType="Char">
                <Description>
                    <TranslatedText xml:lang="en">Procedure Agents Dose Description</TranslatedText>
                </Description>
                <Question>
                    <TranslatedText xml:lang="en">What was the individual dose of the
                        [procedure/assessment agent]?</TranslatedText>
                </Question>
                <Alias Context="sdtmigDatasetMappingTarget_0" Name="AG.AGDOSE"/>
                <Alias Context="sdtmigDatasetMappingTarget_1" Name="AG.AGDOSTXT"/>
                <mdr:Prompt>
                    <TranslatedText xml:lang="en">Dose</TranslatedText>
                </mdr:Prompt>
                <mdr:CRFCompletionInstructions>
                    <TranslatedText xml:lang="en">Record the dose of [procedure agent] taken per
                        administration (e.g., 200).</TranslatedText>
                </mdr:CRFCompletionInstructions>
                <mdr:ImplementationNotes>
                    <TranslatedText xml:lang="en">Defining this data collection field as a dose text
                        field allows for flexibility in capturing dose entries as numbers, text or
                        ranges. The data collected in this dose text-format field should be
                        separated or mapped to either SDTMIG AGDOSE (if numeric) or AGDOSTXT (if
                        text).</TranslatedText>
                </mdr:ImplementationNotes>
                <mdr:MappingInstructions>
                    <TranslatedText xml:lang="en">This does not map directly to an SDTMIG variable.
                        Numeric values map to AGDOSE in SDTM. Non-numeric values (e.g., 200-400) map
                        to AGDOSTXT in SDTM.</TranslatedText>
                </mdr:MappingInstructions>
                <mdr:Definition>
                    <TranslatedText xml:lang="en">The dose of procedure/assessment agent
                        administered per instance.</TranslatedText>
                </mdr:Definition>
            </ItemDef>
            <ItemDef DataType="text" Name="AGDOSU" OID="IT.AG.AGDOSU" mdr:Core="R/C"
                mdr:SubmissionDataType="Char">
                <Description>
                    <TranslatedText xml:lang="en">AG Dose Units</TranslatedText>
                </Description>
                <Question>
                    <TranslatedText xml:lang="en">What is the unit (for the dose of the
                        [procedure/assessment agent])?</TranslatedText>
                </Question>
                <CodeListRef CodeListOID="CL.C71620"/>
                <Alias Context="sdtmigDatasetMappingTarget_0" Name="AG.AGDOSU"/>
                <mdr:AltCodeListRef CodeListOID="CL.C78417"/>
                <mdr:Prompt>
                    <TranslatedText xml:lang="en">(Dose) Unit</TranslatedText>
                </mdr:Prompt>
                <mdr:CRFCompletionInstructions>
                    <TranslatedText xml:lang="en">Record the dose unit of the [procedure agent]
                        administered (e.g., mg).</TranslatedText>
                </mdr:CRFCompletionInstructions>
                <mdr:ImplementationNotes>
                    <TranslatedText xml:lang="en">When sponsors collect data for amount of dose
                        administered (i.e., Dose, Total Daily Dose), the unit must be collected as
                        well (if applicable).</TranslatedText>
                </mdr:ImplementationNotes>
                <mdr:MappingInstructions>
                    <TranslatedText xml:lang="en">Maps directly to the SDTMIG variable listed in the
                        SDTMIG Target column.</TranslatedText>
                </mdr:MappingInstructions>
                <mdr:Definition>
                    <TranslatedText xml:lang="en">The unit associated with the procedure/assessment
                        agent.</TranslatedText>
                </mdr:Definition>
            </ItemDef>
            <ItemDef DataType="text" Name="AGDOSFRM" OID="IT.AG.AGDOSFRM" mdr:Core="O"
                mdr:SubmissionDataType="Char">
                <Description>
                    <TranslatedText xml:lang="en">AG Dose Form</TranslatedText>
                </Description>
                <Question>
                    <TranslatedText xml:lang="en">What was the dose form of the
                        [procedure/assessment agent]?</TranslatedText>
                </Question>
                <CodeListRef CodeListOID="CL.C66726"/>
                <Alias Context="sdtmigDatasetMappingTarget_0" Name="AG.AGDOSFRM"/>
                <mdr:AltCodeListRef CodeListOID="CL.C78418"/>
                <mdr:Prompt>
                    <TranslatedText xml:lang="en">Dose Form</TranslatedText>
                </mdr:Prompt>
                <mdr:CRFCompletionInstructions>
                    <TranslatedText xml:lang="en">Record the pharmaceutical dosage form (e.g.,
                        TABLET CAPSULE SYRUP) for the [procedure agent]
                        [administered].</TranslatedText>
                </mdr:CRFCompletionInstructions>
                <mdr:ImplementationNotes>
                    <TranslatedText xml:lang="en">Some drugs have multiple forms and this field may
                        be needed to code the drug to an ATC level. However, in general, this level
                        of detail should not be necessary except for procedure agents of
                        interest.</TranslatedText>
                </mdr:ImplementationNotes>
                <mdr:MappingInstructions>
                    <TranslatedText xml:lang="en">Maps directly to the SDTMIG variable listed in the
                        SDTMIG Target column.</TranslatedText>
                </mdr:MappingInstructions>
                <mdr:Definition>
                    <TranslatedText xml:lang="en">The pharmaceutical dosage form in which the AGTRT
                        is physically presented.</TranslatedText>
                </mdr:Definition>
            </ItemDef>
            <ItemDef DataType="text" Name="AGDOSFRQ" OID="IT.AG.AGDOSFRQ" mdr:Core="O"
                mdr:SubmissionDataType="Char">
                <Description>
                    <TranslatedText xml:lang="en">AG Dosing Frequency per Interval</TranslatedText>
                </Description>
                <Question>
                    <TranslatedText xml:lang="en">What was the frequency of the
                        [procedure/assessment agent]?</TranslatedText>
                </Question>
                <CodeListRef CodeListOID="CL.C71113"/>
                <Alias Context="sdtmigDatasetMappingTarget_0" Name="AG.AGDOSFRQ"/>
                <mdr:AltCodeListRef CodeListOID="CL.C78419"/>
                <mdr:Prompt>
                    <TranslatedText xml:lang="en">Frequency</TranslatedText>
                </mdr:Prompt>
                <mdr:CRFCompletionInstructions>
                    <TranslatedText xml:lang="en">Record how often the [procedure agent] was
                        administered (e.g., ONCE).</TranslatedText>
                </mdr:CRFCompletionInstructions>
                <mdr:ImplementationNotes>
                    <TranslatedText xml:lang="en">The frequency of the procedure agent. When
                        collected, the recommendation is to collect dosing information in separate
                        fields (e.g., AGDOSE, AGDOSEU, AGDOSFRQ) for specific and consistent data
                        collection and to enable programmatically utilizing these
                        data.</TranslatedText>
                </mdr:ImplementationNotes>
                <mdr:MappingInstructions>
                    <TranslatedText xml:lang="en">Maps directly to the SDTMIG variable listed in the
                        SDTMIG Target column.</TranslatedText>
                </mdr:MappingInstructions>
                <mdr:Definition>
                    <TranslatedText xml:lang="en">The number of doses administered during a specific
                        interval.</TranslatedText>
                </mdr:Definition>
            </ItemDef>
            <ItemDef DataType="text" Name="AGROUTE" OID="IT.AG.AGROUTE" mdr:Core="R/C"
                mdr:SubmissionDataType="Char">
                <Description>
                    <TranslatedText xml:lang="en">AG Route of Administration</TranslatedText>
                </Description>
                <Question>
                    <TranslatedText xml:lang="en">What was the route of administration of the
                        [procedure/assessment agent]?</TranslatedText>
                </Question>
                <CodeListRef CodeListOID="CL.C66729"/>
                <Alias Context="sdtmigDatasetMappingTarget_0" Name="AG.AGROUTE"/>
                <mdr:AltCodeListRef CodeListOID="CL.C78420"/>
                <mdr:Prompt>
                    <TranslatedText xml:lang="en">Route</TranslatedText>
                </mdr:Prompt>
                <mdr:CRFCompletionInstructions>
                    <TranslatedText xml:lang="en">Provide the route of administration for the
                        [procedure agent].</TranslatedText>
                </mdr:CRFCompletionInstructions>
                <mdr:ImplementationNotes>
                    <TranslatedText xml:lang="en">This additional information may be important to
                        collect on the CRF when the sponsor wants to capture a procedure agent's
                        route of administration, for purposes such as coding, and the procedure
                        agent may have more than 1 route. Some companies may use route in coding
                        procedure agents to be able to choose a precise preferred name and ATC
                        code.</TranslatedText>
                </mdr:ImplementationNotes>
                <mdr:MappingInstructions>
                    <TranslatedText xml:lang="en">Maps directly to the SDTMIG variable listed in the
                        SDTMIG Target column.</TranslatedText>
                </mdr:MappingInstructions>
                <mdr:Definition>
                    <TranslatedText xml:lang="en">The route of administration of the
                        procedure/assessment agent.</TranslatedText>
                </mdr:Definition>
            </ItemDef>
            <ItemDef DataType="text" Name="AGSTDAT" OID="IT.AG.AGSTDAT" mdr:Core="R/C"
                mdr:SubmissionDataType="Char">
                <Description>
                    <TranslatedText xml:lang="en">Procedure Agent Start Date</TranslatedText>
                </Description>
                <Question>
                    <TranslatedText xml:lang="en">What was the procedure/assessment agent] start
                        date?</TranslatedText>
                </Question>
                <Alias Context="sdtmigDatasetMappingTarget_0" Name="AG.AGSTDTC"/>
                <mdr:Prompt>
                    <TranslatedText xml:lang="en">Start Date</TranslatedText>
                </mdr:Prompt>
                <mdr:CRFCompletionInstructions>
                    <TranslatedText xml:lang="en">Record the date the procedure agent was first
                        administered using this format (DD-MON-YYYY). Procedure agent(s)
                        administered during the study are expected to have a complete start
                        date.</TranslatedText>
                </mdr:CRFCompletionInstructions>
                <mdr:ImplementationNotes>
                    <TranslatedText xml:lang="en">The assumption is that sponsors should either have
                        a start date or will indicate that the procedure agent was started before,
                        during or after the study period. The preferred method is to collect a
                        complete start date. Partial dates (e.g., providing year only) for procedure
                        agent started a considerable amount of time prior to the start of study are
                        acceptable.</TranslatedText>
                </mdr:ImplementationNotes>
                <mdr:MappingInstructions>
                    <TranslatedText xml:lang="en">This does not map directly to an SDTMIG variable.
                        For the SDTM submission dataset, concatenate all collected CDASH START DATE
                        and TIME components and populate the SDTMIG variable AGSTDTC in ISO 8601
                        format.</TranslatedText>
                </mdr:MappingInstructions>
                <mdr:Definition>
                    <TranslatedText xml:lang="en">The start date when the procedure/assessment agent
                        was first administered, represented in an unambiguous date format (e.g.,
                        DD-MON-YYYY).</TranslatedText>
                </mdr:Definition>
            </ItemDef>
            <ItemDef DataType="text" Name="AGSTTIM" OID="IT.AG.AGSTTIM" mdr:Core="R/C"
                mdr:SubmissionDataType="Char">
                <Description>
                    <TranslatedText xml:lang="en">Procedure Agent Start Time</TranslatedText>
                </Description>
                <Question>
                    <TranslatedText xml:lang="en">What was the [procedure/assessment agent] start
                        time?</TranslatedText>
                </Question>
                <Alias Context="sdtmigDatasetMappingTarget_0" Name="AG.AGSTDTC"/>
                <mdr:Prompt>
                    <TranslatedText xml:lang="en">Start Time</TranslatedText>
                </mdr:Prompt>
                <mdr:CRFCompletionInstructions>
                    <TranslatedText xml:lang="en">Record the time (as complete as possible) that the
                        [procedure agent] was started.</TranslatedText>
                </mdr:CRFCompletionInstructions>
                <mdr:ImplementationNotes>
                    <TranslatedText xml:lang="en">Recommend collecting the time a procedure agent
                        was started only when a protocol or data collection scenarios supports it.
                        Typically, a start time is not collected unless the subject is under the
                        direct care of the site at the time a procedure agent administered or the
                        subject records the start time in a diary. See Mapping Relative Times from
                        Collection to Submissions, and the SDTMIG for more
                        information.</TranslatedText>
                </mdr:ImplementationNotes>
                <mdr:MappingInstructions>
                    <TranslatedText xml:lang="en">This does not map directly to an SDTMIG variable.
                        For the SDTM submission dataset, concatenate all collected CDASH START DATE
                        and TIME components and populate the SDTMIG variable AGSTDTC in ISO 8601
                        format.</TranslatedText>
                </mdr:MappingInstructions>
                <mdr:Definition>
                    <TranslatedText xml:lang="en">The time the procedure/assessment agent was
                        started, represented in an ambiguous time format (e.g.,
                        h:mm:ss).</TranslatedText>
                </mdr:Definition>
            </ItemDef>
            <ItemDef DataType="text" Name="AGPRIOR" OID="IT.AG.AGPRIOR" mdr:Core="O"
                mdr:SubmissionDataType="Char">
                <Description>
                    <TranslatedText xml:lang="en">Prior Procedure Agents</TranslatedText>
                </Description>
                <Question>
                    <TranslatedText xml:lang="en">Was the [procedure/assessment agent] administered
                        prior to AGSTTPT? Was the procedure/assessment agent given prior to study
                        start?</TranslatedText>
                </Question>
                <CodeListRef CodeListOID="CL.C66742"/>
                <Alias Context="sdtmigDatasetMappingTarget_0" Name="AG.AGSTRF"/>
                <Alias Context="sdtmigDatasetMappingTarget_1" Name="AG.AGSTRTPT"/>
                <mdr:Prompt>
                    <TranslatedText xml:lang="en">Prior to [AGSTTPT]; prior to
                        study</TranslatedText>
                </mdr:Prompt>
                <mdr:CRFCompletionInstructions>
                    <TranslatedText xml:lang="en">Check if the [procedure agent] was started before
                        the study.</TranslatedText>
                </mdr:CRFCompletionInstructions>
                <mdr:ImplementationNotes>
                    <TranslatedText xml:lang="en">Sponsors may collect this information rather than
                        start dates. See Mapping Relative Times from Collection to Submissions, and
                        the SDTMIG for more information.</TranslatedText>
                </mdr:ImplementationNotes>
                <mdr:MappingInstructions>
                    <TranslatedText xml:lang="en">This does not map directly to an SDTMIG variable.
                        May be used to populate a value into an SDTMIG relative timing variable such
                        as AGSTRF or AGSTRTPT. When populating AGSTRF or AGSTRTPT, if the value of
                        the CDASH field AGPRIOR is "Y", a value from the CDISC CT (STENRF) may be
                        used. When AGPRIOR refers to the Study Reference Period (defined in
                        DM.RFSTDTC to DM.RFENDTC), the SDTMIG variable AGSTRF should be populated.
                        When AGPRIOR is compared to another time point, the SDTMIG variables
                        AGSTRTPT and AGSTTPT should be used. Note: AGSTRTPT must be in reference to
                        the time-point anchor described in AGSTTPT.</TranslatedText>
                </mdr:MappingInstructions>
                <mdr:Definition>
                    <TranslatedText xml:lang="en">Indication the procedure/assessment agent was
                        administered prior to [AGSTTPT] or prior to the date in
                        DM.RFSTDTC.</TranslatedText>
                </mdr:Definition>
            </ItemDef>
            <ItemDef DataType="text" Name="AGONGO" OID="IT.AG.AGONGO" mdr:Core="R/C"
                mdr:SubmissionDataType="Char">
                <Description>
                    <TranslatedText xml:lang="en">Ongoing Procedure Agents</TranslatedText>
                </Description>
                <Question>
                    <TranslatedText xml:lang="en">Was the [procedure/assessment agent] ongoing (as
                        of the [study-specific time point or period])?</TranslatedText>
                </Question>
                <CodeListRef CodeListOID="CL.C66742"/>
                <Alias Context="sdtmigDatasetMappingTarget_0" Name="AG.AGENRF"/>
                <Alias Context="sdtmigDatasetMappingTarget_1" Name="AG.AGENRTPT"/>
                <mdr:Prompt>
                    <TranslatedText xml:lang="en">Ongoing (as of [the study-specific time point or
                        period])</TranslatedText>
                </mdr:Prompt>
                <mdr:CRFCompletionInstructions>
                    <TranslatedText xml:lang="en">Record the [procedure agent] as ongoing if the
                        subject has not stopped taking the procedure agent at [the time point
                        defined by the study]. If the procedure agent is ongoing, the end date
                        should be left blank.</TranslatedText>
                </mdr:CRFCompletionInstructions>
                <mdr:ImplementationNotes>
                    <TranslatedText xml:lang="en">This box should be checked to indicate that
                        theprocedure agent has not stopped at the time of data collection. It is
                        expected that every recorded procedure agent should have either an end date
                        or be checked as ongoing, but not both. However, in cases where ongoing
                        procedure agents are not permitted, it may not be necessary to include an
                        Ongoing field in the CRF. See Mapping Relative Times from Collection to
                        Submission, for more information about collecting relative date/time; see
                        the SDTMIG for information about mapping relative times.</TranslatedText>
                </mdr:ImplementationNotes>
                <mdr:MappingInstructions>
                    <TranslatedText xml:lang="en">This does not map directly to an SDTMIG variable.
                        May be used to populate a value into an SDTMIG relative timing variable such
                        as AGENRF or AGENRTPT. When populating AGENRF, if the value of AGONGO is
                        "Y", the values of "DURING", "AFTER" or "DURING/AFTER" may be used. When
                        populating AGENRTPT, if the value of AGONGO is "Y", the value of "ONGOING"
                        may be used. When AGONGO refers to the Study Reference Period (defined in
                        DM.RFSTDTC to DM.RFENDTC), the SDTMIG variable AGENRF should be populated.
                        When AGONGO is used in conjunction with another time point, the SDTMIG
                        variables AGENRTPT and AGENTPT should be used. Note: AGENRTPT must be in
                        reference to the time-point anchor described in AGENTPT.</TranslatedText>
                </mdr:MappingInstructions>
                <mdr:Definition>
                    <TranslatedText xml:lang="en">Indication the procedure/assessment agent is
                        ongoing when no end date is provided.</TranslatedText>
                </mdr:Definition>
            </ItemDef>
            <ItemDef DataType="text" Name="AGENDAT" OID="IT.AG.AGENDAT" mdr:Core="R/C"
                mdr:SubmissionDataType="Char">
                <Description>
                    <TranslatedText xml:lang="en">Procedure Agents End Date</TranslatedText>
                </Description>
                <Question>
                    <TranslatedText xml:lang="en">What was the [procedure/assessment agent's] end
                        date?</TranslatedText>
                </Question>
                <Alias Context="sdtmigDatasetMappingTarget_0" Name="AG.AGENDTC"/>
                <mdr:Prompt>
                    <TranslatedText xml:lang="en">End Date</TranslatedText>
                </mdr:Prompt>
                <mdr:CRFCompletionInstructions>
                    <TranslatedText xml:lang="en">Record the date the procedure agent was topped
                        using this format (DD-MM-YYYY). If the subject has not stopped
                        [administering/being administered] the procedure agent leave this field
                        blank.</TranslatedText>
                </mdr:CRFCompletionInstructions>
                <mdr:ImplementationNotes>
                    <TranslatedText xml:lang="en">The assumption is that sponsors should either have
                        an end date or will indicate that the procedure agent was ongoing at the
                        time of collection or at the end of the study. However, in cases where the
                        end date can be determined from dates collected elsewhere in the CRF it is
                        not necessary to include an end date in the CRF. For example, if all
                        procedure agents are administered only once during a trial, the end date
                        will be the same as the start date.</TranslatedText>
                </mdr:ImplementationNotes>
                <mdr:MappingInstructions>
                    <TranslatedText xml:lang="en">This does not map directly to an SDTMIG variable.
                        For the SDTM submission dataset, concatenate all collected CDASH END DATE
                        and TIME components and populate the SDTMIG variable CMENDTC in ISO 8601
                        format.</TranslatedText>
                </mdr:MappingInstructions>
                <mdr:Definition>
                    <TranslatedText xml:lang="en">The date the procedure/assessment agent was
                        stopped/ended, represented in an unambiguous date format (e.g.
                        DD-MON-YYYY).</TranslatedText>
                </mdr:Definition>
            </ItemDef>
            <ItemDef DataType="text" Name="AGENTIM" OID="IT.AG.AGENTIM" mdr:Core="R/C"
                mdr:SubmissionDataType="Char">
                <Description>
                    <TranslatedText xml:lang="en">Procedure Agents End Time</TranslatedText>
                </Description>
                <Question>
                    <TranslatedText xml:lang="en">What was the [procedure/assessment agent's] end
                        time?</TranslatedText>
                </Question>
                <Alias Context="sdtmigDatasetMappingTarget_0" Name="AG.AGENDTC"/>
                <mdr:Prompt>
                    <TranslatedText xml:lang="en">End Time</TranslatedText>
                </mdr:Prompt>
                <mdr:CRFCompletionInstructions>
                    <TranslatedText xml:lang="en">Record the time (as complete as possible) that the
                        procedure agent was stopped.</TranslatedText>
                </mdr:CRFCompletionInstructions>
                <mdr:ImplementationNotes>
                    <TranslatedText xml:lang="en">Recommend collecting the time a procedure agent
                        was ended only when a protocol or data collection scenarios require it or
                        the subject records the end time in a diary. Typically, an end time is not
                        collected unless the subject is under the direct care of the site at the
                        time a procedure agent is stopped.</TranslatedText>
                </mdr:ImplementationNotes>
                <mdr:MappingInstructions>
                    <TranslatedText xml:lang="en">This does not map directly to an SDTMIG variable.
                        For the SDTM submission dataset, concatenate all collected CDASH END DATE
                        and TIME components and populate the SDTMIG variable AGENDTC in ISO 8601
                        format.</TranslatedText>
                </mdr:MappingInstructions>
                <mdr:Definition>
                    <TranslatedText xml:lang="en">The time the concomitant
                        medication/treatment/therapy was started, represented in an unambiguous time
                        format (e.g., hh:mm:ss).</TranslatedText>
                </mdr:Definition>
            </ItemDef>
            <ItemDef DataType="text" Name="AGDECOD" OID="IT.AG.AGDECOD" mdr:Core="O"
                mdr:SubmissionDataType="Char">
                <Description>
                    <TranslatedText xml:lang="en">Standardized Agent Name</TranslatedText>
                </Description>
                <Alias Context="sdtmigDatasetMappingTarget_0" Name="AG.AGDECOD"/>
                <mdr:ImplementationNotes>
                    <TranslatedText xml:lang="en">This is typically not a data collection field that
                        will appear on the CRF. If the sponsor chooses to code the procedure, the
                        sponsor will populate this through the coding process. If PRPRESP is used,
                        and the information about a specific standardized procedure name is being
                        solicited, the data from AGTRT may map directly to the SDTMIG AGDECOD
                        variable.</TranslatedText>
                </mdr:ImplementationNotes>
                <mdr:MappingInstructions>
                    <TranslatedText xml:lang="en">Maps directly to the SDTMIG variable listed in the
                        SDTMIG Target column.</TranslatedText>
                </mdr:MappingInstructions>
                <mdr:Definition>
                    <TranslatedText xml:lang="en">The dictionary or sponsor-defined standardized
                        text description of the topic variable (AGTRT) or the modified topic
                        variable (AGMODIFY), if applicable.</TranslatedText>
                </mdr:Definition>
            </ItemDef>
            <ItemDef DataType="text" Name="AGCLAS" OID="IT.AG.AGCLAS" mdr:Core="O"
                mdr:SubmissionDataType="Char">
                <Description>
                    <TranslatedText xml:lang="en">AG Agent Class</TranslatedText>
                </Description>
                <Alias Context="sdtmigDatasetMappingTarget_0" Name="AG.AGCLAS"/>
                <mdr:ImplementationNotes>
                    <TranslatedText xml:lang="en">This field does not typically appear on the CRF.
                        Sponsors will populate this through the coding process. This would generally
                        be the class used for analysis.</TranslatedText>
                </mdr:ImplementationNotes>
                <mdr:MappingInstructions>
                    <TranslatedText xml:lang="en">Maps directly to the SDTMIG variable listed in the
                        SDTMIG Target column.</TranslatedText>
                </mdr:MappingInstructions>
                <mdr:Definition>
                    <TranslatedText xml:lang="en">The class for the agent, often obtained from a
                        coding dictionary.</TranslatedText>
                </mdr:Definition>
            </ItemDef>
            <ItemDef DataType="double" Name="AGCLASCD" OID="IT.AG.AGCLASCD" mdr:Core="O"
                mdr:SubmissionDataType="Num">
                <Description>
                    <TranslatedText xml:lang="en">AG Agent Class Code</TranslatedText>
                </Description>
                <Alias Context="sdtmigDatasetMappingTarget_0" Name="AG.AGCLASCD"/>
                <mdr:ImplementationNotes>
                    <TranslatedText xml:lang="en">This field does not typically appear on the CRF.
                        Sponsors will populate this through the coding process. This would generally
                        be the class code used for analysis.</TranslatedText>
                </mdr:ImplementationNotes>
                <mdr:MappingInstructions>
                    <TranslatedText xml:lang="en">Maps directly to the SDTMIG variable listed in the
                        SDTMIG Target column.</TranslatedText>
                </mdr:MappingInstructions>
                <mdr:Definition>
                    <TranslatedText xml:lang="en">The assigned dictionary code for the class of
                        agent.</TranslatedText>
                </mdr:Definition>
            </ItemDef>
            <ItemDef DataType="text" Name="STUDYID" OID="IT.CM.STUDYID" mdr:Core="HR"
                mdr:SubmissionDataType="Char">
                <Description>
                    <TranslatedText xml:lang="en">Study Identifier</TranslatedText>
                </Description>
                <Question>
                    <TranslatedText xml:lang="en">What is the study identifier?</TranslatedText>
                </Question>
                <Alias Context="sdtmigDatasetMappingTarget_0" Name="CM.STUDYID"/>
                <mdr:Prompt>
                    <TranslatedText xml:lang="en">[Protocol/Study]</TranslatedText>
                </mdr:Prompt>
                <mdr:ImplementationNotes>
                    <TranslatedText xml:lang="en">Although this field is not typically captured on a
                        CRF, it should be displayed clearly on the CRF and/or the EDC system. This
                        field can be included into the database or populated during SDTM-based
                        dataset creation before submission.</TranslatedText>
                </mdr:ImplementationNotes>
                <mdr:MappingInstructions>
                    <TranslatedText xml:lang="en">Maps directly to the SDTMIG variable listed in the
                        SDTMIG Target column.</TranslatedText>
                </mdr:MappingInstructions>
                <mdr:Definition>
                    <TranslatedText xml:lang="en">A unique identifier for a study.</TranslatedText>
                </mdr:Definition>
            </ItemDef>
            <ItemDef DataType="text" Name="SITEID" OID="IT.CM.SITEID" mdr:Core="HR"
                mdr:SubmissionDataType="Char">
                <Description>
                    <TranslatedText xml:lang="en">Study Site Identifier</TranslatedText>
                </Description>
                <Question>
                    <TranslatedText xml:lang="en">What is the site identifier?</TranslatedText>
                </Question>
                <Alias Context="sdtmigDatasetMappingTarget_0" Name="DM.SITEID"/>
                <mdr:Prompt>
                    <TranslatedText xml:lang="en">Site (Identifier)</TranslatedText>
                </mdr:Prompt>
                <mdr:ImplementationNotes>
                    <TranslatedText xml:lang="en">Paper: For single-site studies, this is typically
                        pre-printed in the header of each CRF page. For studies with multiple sites,
                        this field may be left blank so that the number can be recorded by the site,
                        or it may be pre-printed on CRFs that are shipped to each site. \n EDC: This
                        should be pre-populated.</TranslatedText>
                </mdr:ImplementationNotes>
                <mdr:MappingInstructions>
                    <TranslatedText xml:lang="en">Maps directly to the SDTMIG variable listed in the
                        SDTMIG Target column.</TranslatedText>
                </mdr:MappingInstructions>
                <mdr:Definition>
                    <TranslatedText xml:lang="en">A unique identifier for a site within a
                        study.</TranslatedText>
                </mdr:Definition>
            </ItemDef>
            <ItemDef DataType="text" Name="SUBJID" OID="IT.CM.SUBJID" mdr:Core="HR"
                mdr:SubmissionDataType="Char">
                <Description>
                    <TranslatedText xml:lang="en">Subject Identifier for the Study</TranslatedText>
                </Description>
                <Question>
                    <TranslatedText xml:lang="en">What [is/was] the (study) [subject/participant]
                        identifier?</TranslatedText>
                </Question>
                <Alias Context="sdtmigDatasetMappingTarget_0" Name="DM.SUBJID"/>
                <mdr:Prompt>
                    <TranslatedText xml:lang="en">[Subject/Participant]
                        (Identifier)</TranslatedText>
                </mdr:Prompt>
                <mdr:CRFCompletionInstructions>
                    <TranslatedText xml:lang="en">Record the identifier for the
                        subject.</TranslatedText>
                </mdr:CRFCompletionInstructions>
                <mdr:ImplementationNotes>
                    <TranslatedText xml:lang="en">Paper: This is typically recorded in the header of
                        each CRF page. \n EDC: The subject identifiers may be system-generated. \n
                        This CDASH variable is typically collected in all CDASH domains. However,
                        this CDASH variable is populated only in the SDTMIG DM domain. For more
                        information, refer to the SDTMIG.</TranslatedText>
                </mdr:ImplementationNotes>
                <mdr:MappingInstructions>
                    <TranslatedText xml:lang="en">Maps directly to the SDTMIG variable listed in the
                        SDTMIG Target column.</TranslatedText>
                </mdr:MappingInstructions>
                <mdr:Definition>
                    <TranslatedText xml:lang="en">A unique subject identifier within a site and a
                        study.</TranslatedText>
                </mdr:Definition>
            </ItemDef>
            <ItemDef DataType="text" Name="CMCAT" OID="IT.CM.CMCAT" mdr:Core="O"
                mdr:SubmissionDataType="Char">
                <Description>
                    <TranslatedText xml:lang="en">Category for Medication</TranslatedText>
                </Description>
                <Question>
                    <TranslatedText xml:lang="en">What is the category for the (concomitant)
                        [medication/treatment/therapy]?</TranslatedText>
                </Question>
                <Alias Context="sdtmigDatasetMappingTarget_0" Name="CM.CMCAT"/>
                <mdr:Prompt>
                    <TranslatedText xml:lang="en">(Concomitant) [Medication/Treatment/Therapy
                        Category]; NULL</TranslatedText>
                </mdr:Prompt>
                <mdr:CRFCompletionInstructions>
                    <TranslatedText xml:lang="en">Record the (concomitant)
                        [medication/treatment/therapy] category, if not pre-printed on the
                        CRF.</TranslatedText>
                </mdr:CRFCompletionInstructions>
                <mdr:ImplementationNotes>
                    <TranslatedText xml:lang="en">Sponsor-defined controlled terminology. This would
                        most commonly be either a heading or a pre-printed category value on the
                        CRF, not a question to which the site would provide an answer. If a question
                        is asked, the response would typically be a sponsor-defined codelist. If the
                        form is laid out as a grid, then words such as "Category" can be included in
                        the column heading.</TranslatedText>
                </mdr:ImplementationNotes>
                <mdr:MappingInstructions>
                    <TranslatedText xml:lang="en">Maps directly to the SDTMIG variable listed in the
                        SDTMIG Target column.</TranslatedText>
                </mdr:MappingInstructions>
                <mdr:Definition>
                    <TranslatedText xml:lang="en">A grouping of topic-variable values based on
                        user-defined characteristics.</TranslatedText>
                </mdr:Definition>
            </ItemDef>
            <ItemDef DataType="text" Name="CMSCAT" OID="IT.CM.CMSCAT" mdr:Core="O"
                mdr:SubmissionDataType="Char">
                <Description>
                    <TranslatedText xml:lang="en">Subcategory for Medication</TranslatedText>
                </Description>
                <Question>
                    <TranslatedText xml:lang="en">What is the subcategory for the (concomitant)
                        [medication/treatment/therapy]?</TranslatedText>
                </Question>
                <Alias Context="sdtmigDatasetMappingTarget_0" Name="CM.CMSCAT"/>
                <mdr:Prompt>
                    <TranslatedText xml:lang="en">(Concomitant) [Medication/Treatment/Therapy
                        subcategory]; NULL</TranslatedText>
                </mdr:Prompt>
                <mdr:CRFCompletionInstructions>
                    <TranslatedText xml:lang="en">Record (concomitant)
                        [medication/treatment/therapy] subcategory, if not pre-printed on the
                        CRF.</TranslatedText>
                </mdr:CRFCompletionInstructions>
                <mdr:ImplementationNotes>
                    <TranslatedText xml:lang="en">Sponsor-defined controlled terminology. This would
                        most commonly be pre-printed on the CRF or screen and pre-populated in the
                        data management system. This is not typically a question to which the site
                        would provide an answer.</TranslatedText>
                </mdr:ImplementationNotes>
                <mdr:MappingInstructions>
                    <TranslatedText xml:lang="en">Maps directly to the SDTMIG variable listed in the
                        SDTMIG Target column.</TranslatedText>
                </mdr:MappingInstructions>
                <mdr:Definition>
                    <TranslatedText xml:lang="en">A sub-division of the CMCAT values based on
                        user-defined characteristics.</TranslatedText>
                </mdr:Definition>
            </ItemDef>
            <ItemDef DataType="text" Name="CMYN" OID="IT.CM.CMYN" mdr:Core="O"
                mdr:SubmissionDataType="Char">
                <Description>
                    <TranslatedText xml:lang="en">Any Concomitant Medications Taken</TranslatedText>
                </Description>
                <Question>
                    <TranslatedText xml:lang="en">Were/Was any (concomitant)
                        [medication(s)/treatment(s)/therapy(ies)] taken?</TranslatedText>
                </Question>
                <CodeListRef CodeListOID="CL.C66742"/>
                <mdr:Prompt>
                    <TranslatedText xml:lang="en">Any (Concomitant)
                        [Medication(s)/Treatment(s)/Therapy(ies)]</TranslatedText>
                </mdr:Prompt>
                <mdr:CRFCompletionInstructions>
                    <TranslatedText xml:lang="en">Indicate if the subject took any (concomitant)
                        [medications/treatments]. If Yes, include the appropriate details where
                        indicated on the CRF.</TranslatedText>
                </mdr:CRFCompletionInstructions>
                <mdr:ImplementationNotes>
                    <TranslatedText xml:lang="en">The intent/purpose of collecting this field is to
                        help with data cleaning and monitoring. It provides verification that all
                        other fields on the CRF were deliberately left blank.</TranslatedText>
                </mdr:ImplementationNotes>
                <mdr:MappingInstructions>
                    <TranslatedText xml:lang="en">Does not map to an SDTMIG variable. The SDTM
                        annotated CRF indicates that this field is NOT SUBMITTED.</TranslatedText>
                </mdr:MappingInstructions>
                <mdr:Definition>
                    <TranslatedText xml:lang="en">An indication of whether any (concomitant)
                        medications/treatments/therapies were taken/given.</TranslatedText>
                </mdr:Definition>
            </ItemDef>
            <ItemDef DataType="text" Name="CMSPID" OID="IT.CM.CMSPID" mdr:Core="O"
                mdr:SubmissionDataType="Char">
                <Description>
                    <TranslatedText xml:lang="en">CM Sponsor-Defined Identifier</TranslatedText>
                </Description>
                <Question>
                    <TranslatedText xml:lang="en">[Sponsor-defined question]</TranslatedText>
                </Question>
                <Alias Context="sdtmigDatasetMappingTarget_0" Name="CM.CMSPID"/>
                <mdr:Prompt>
                    <TranslatedText xml:lang="en">[Sponsor defined]</TranslatedText>
                </mdr:Prompt>
                <mdr:CRFCompletionInstructions>
                    <TranslatedText xml:lang="en">If collected on the CRF, sponsor may insert
                        instructions to ensure each record has a unique identifier.</TranslatedText>
                </mdr:CRFCompletionInstructions>
                <mdr:ImplementationNotes>
                    <TranslatedText xml:lang="en">Because SPID is a sponsor-defined identifier,
                        conformance to Question Text or Item Prompt is not applicable. Typically
                        used as an identifier in a data query to communicate clearly to the site the
                        specific record in question or to reconcile concomitant medication/treatment
                        records with AEs and/or MH. May be used to record pre-printed number (e.g.
                        line number, record number) on the CRF. This field may be populated by the
                        sponsor's data collection system.</TranslatedText>
                </mdr:ImplementationNotes>
                <mdr:MappingInstructions>
                    <TranslatedText xml:lang="en">Maps directly to the SDTMIG variable listed in the
                        SDTMIG Target column. May be used to create RELREC to link this record with
                        a record in another domain.</TranslatedText>
                </mdr:MappingInstructions>
                <mdr:Definition>
                    <TranslatedText xml:lang="en">A sponsor-defined identifier. In CDASH, this is
                        typically used for pre-printed or auto-generated numbers on the CRF, or any
                        other type of identifier that does not already have a defined CDASH
                        identifier field.</TranslatedText>
                </mdr:Definition>
            </ItemDef>
            <ItemDef DataType="text" Name="CMTRT" OID="IT.CM.CMTRT" mdr:Core="HR"
                mdr:SubmissionDataType="Char">
                <Description>
                    <TranslatedText xml:lang="en">Reported Name of Drug, Med, or
                        Therapy</TranslatedText>
                </Description>
                <Question>
                    <TranslatedText xml:lang="en">What was the (concomitant)
                        [medication/treatment/therapy] (name/term)?</TranslatedText>
                </Question>
                <Alias Context="sdtmigDatasetMappingTarget_0" Name="CM.CMTRT"/>
                <mdr:Prompt>
                    <TranslatedText xml:lang="en">(Concomitant)
                        [Medication/Treatment/Therapy]</TranslatedText>
                </mdr:Prompt>
                <mdr:CRFCompletionInstructions>
                    <TranslatedText xml:lang="en">Record only 1 [medication/treatment/therapy] per
                        line. Provide the full trade or proprietary name of the
                        [medication/treatment/therapy]; otherwise the generic name may be
                        recorded.</TranslatedText>
                </mdr:CRFCompletionInstructions>
                <mdr:ImplementationNotes>
                    <TranslatedText xml:lang="en">In most cases, the verbatim drug names or
                        treatment will be coded to a standard dictionary (e.g., WHODrug) after data
                        have been collected on the CRF. For the collection of verbatim drug name or
                        treatments, the recommendation is for sites to provide the full trade or
                        proprietary name, which is more exact than the generic. The full trade name
                        provides the base generic and the appropriate salt for that particular drug.
                        In addition, for coding purposes, it helps with ATC selection (e.g., Tylenol
                        with codeine #1 has a different ATC code than Tylenol with codeine #3). This
                        field can be used for either prior or concomitant
                        medication/treatments.</TranslatedText>
                </mdr:ImplementationNotes>
                <mdr:MappingInstructions>
                    <TranslatedText xml:lang="en">Maps directly to the SDTMIG variable listed in the
                        SDTMIG Target column.</TranslatedText>
                </mdr:MappingInstructions>
                <mdr:Definition>
                    <TranslatedText xml:lang="en">Verbatim medication name or treatments (include
                        only treatments with data collection characteristics similar to
                        medications).</TranslatedText>
                </mdr:Definition>
            </ItemDef>
            <ItemDef DataType="text" Name="CMPRESP" OID="IT.CM.CMPRESP" mdr:Core="O"
                mdr:SubmissionDataType="Char">
                <Description>
                    <TranslatedText xml:lang="en">CM Pre-Specified</TranslatedText>
                </Description>
                <CodeListRef CodeListOID="CL.C66742"/>
                <Alias Context="sdtmigDatasetMappingTarget_0" Name="CM.CMPRESP"/>
                <mdr:ImplementationNotes>
                    <TranslatedText xml:lang="en">For pre-specified interventions, this is a hidden
                        field on a CRF defaulted to "Y", or added during the SDTM dataset creation.
                        If a study collects both pre-specified and free-text interventions, the
                        value of CMPRESP should be "Y" for all pre-specified interventions and null
                        for interventions reported as free text.</TranslatedText>
                </mdr:ImplementationNotes>
                <mdr:MappingInstructions>
                    <TranslatedText xml:lang="en">Maps directly to the SDTMIG variable listed in the
                        SDTMIG Target column.</TranslatedText>
                </mdr:MappingInstructions>
                <mdr:Definition>
                    <TranslatedText xml:lang="en">An indication that a specific intervention or a
                        group of interventions is pre-specified on a CRF.</TranslatedText>
                </mdr:Definition>
            </ItemDef>
            <ItemDef DataType="text" Name="CMOCCUR" OID="IT.CM.CMOCCUR" mdr:Core="O"
                mdr:SubmissionDataType="Char">
                <Description>
                    <TranslatedText xml:lang="en">CM Occurrence</TranslatedText>
                </Description>
                <Question>
                    <TranslatedText xml:lang="en">Did the subject take [prespecified (concomitant)
                        medication/treatment/therapy/dose]?; Has the subject taken [prespecified
                        (concomitant) medication/treatment/therapy/dose]?</TranslatedText>
                </Question>
                <CodeListRef CodeListOID="CL.C66742"/>
                <Alias Context="sdtmigDatasetMappingTarget_0" Name="CM.CMOCCUR"/>
                <mdr:Prompt>
                    <TranslatedText xml:lang="en">[Specific (Concomitant)
                        [Medication/Treatment/Therapy]</TranslatedText>
                </mdr:Prompt>
                <mdr:CRFCompletionInstructions>
                    <TranslatedText xml:lang="en">Indicate if [specific medication/treatment] was
                        taken by checking Yes or No.</TranslatedText>
                </mdr:CRFCompletionInstructions>
                <mdr:ImplementationNotes>
                    <TranslatedText xml:lang="en">CMOCCUR is used to report the occurrence of a
                        pre-specified medication/treatment. CMOCCUR is not used for spontaneously
                        free-text reported concomitant medication/treatments. The site should be
                        able to indicate that the question was not asked or
                        answered.</TranslatedText>
                </mdr:ImplementationNotes>
                <mdr:MappingInstructions>
                    <TranslatedText xml:lang="en">Maps directly to the SDTMIG variable listed in the
                        SDTMIG Target column. If the question was not asked or answered, populate
                        the SDTMIG variable CMSTAT with "NOT DONE".</TranslatedText>
                </mdr:MappingInstructions>
                <mdr:Definition>
                    <TranslatedText xml:lang="en">An indication whether the prespecified
                        medication/treatment/therapy (CMTRT) or the group of
                        medications/treatments/therapies was administered when information about the
                        occurrence of a specific intervention was solicited.</TranslatedText>
                </mdr:Definition>
            </ItemDef>
            <ItemDef DataType="text" Name="CMINGRD" OID="IT.CM.CMINGRD" mdr:Core="O"
                mdr:SubmissionDataType="Char">
                <Description>
                    <TranslatedText xml:lang="en">Concomitant Meds Active
                        Ingredients</TranslatedText>
                </Description>
                <Question>
                    <TranslatedText xml:lang="en">What were the active ingredients?</TranslatedText>
                </Question>
                <mdr:Prompt>
                    <TranslatedText xml:lang="en">Active Ingredients</TranslatedText>
                </mdr:Prompt>
                <mdr:CRFCompletionInstructions>
                    <TranslatedText xml:lang="en">Prior to a subject's clinical visit, remind all
                        subjects to bring all medications bottles, packs etc. they are taking with
                        them to their clinical visit. Record all active ingredient(s) off the
                        medication label and separate each ingredient with a comma for the name of
                        drug medication or treatment taken. For example, the medication Dolmen, if
                        manufactured in Spain, the active ingredients should be collected as noted
                        below: Active Ingredient: Acetylsalicylic Acid, Ascorbic acid, codeine
                        phosphate.</TranslatedText>
                </mdr:CRFCompletionInstructions>
                <mdr:ImplementationNotes>
                    <TranslatedText xml:lang="en">This may be collected in addition to the
                        medication/treatment name. Collecting this provides more detailed
                        information when coding to a medication dictionary like WHODrug Dictionary
                        Enhanced Format C, which codes to the ingredient level for many trade-name
                        medications. For example, depending on the country where it is manufactured,
                        the active ingredients in the medication dolmen may be different: In Spain,
                        acetylsalicylic acid, ascorbic acid, codeine phosphate; in Italy and Czech
                        Republic, tenoxicam; in Estonia and Latvia, dexketoprofen
                        trometamol.</TranslatedText>
                </mdr:ImplementationNotes>
                <mdr:MappingInstructions>
                    <TranslatedText xml:lang="en">Does not map to an SDTMIG variable. The SDTM
                        annotated CRF indicates that this field is NOT SUBMITTED.</TranslatedText>
                </mdr:MappingInstructions>
                <mdr:Definition>
                    <TranslatedText xml:lang="en">Medication ingredients.</TranslatedText>
                </mdr:Definition>
            </ItemDef>
            <ItemDef DataType="text" Name="CMINDC" OID="IT.CM.CMINDC" mdr:Core="R/C"
                mdr:SubmissionDataType="Char">
                <Description>
