<?xml version="1.0" encoding="UTF-8" ?>
<ODM AsOfDateTime="2021-11-29T00:00:00+00:00" CreationDateTime="2021-12-28T18:51:40.759976+00:00"
    FileOID="ODM.SDTMIGv3.4.2021-11-29" FileType="Snapshot" Granularity="Metadata"
    ODMVersion="1.3.2" Originator="CDISC LIBRARY" SourceSystem="cdisc_library_api"
    SourceSystemVersion="1.0" def:Context="Other" mdr:LibraryXMLVersion="1.0.0"
    xmlns="http://www.cdisc.org/ns/odm/v1.3" xmlns:def="http://www.cdisc.org/ns/def/v2.1"
    xmlns:mdr="http://www.cdisc.org/ns/library-xml/v1.0" xmlns:xlink="http://www.w3.org/1999/xlink">
    <Study OID="STUDY.SDTMIG.v3.4">
        <GlobalVariables>
            <StudyName>SDTMIG v3.4</StudyName>
            <StudyDescription>Study Data Tabulation Model Implementation Guide: Human Clinical
                Trials</StudyDescription>
            <ProtocolName>CDISC Standard Publication</ProtocolName>
        </GlobalVariables>
        <MetaDataVersion Name="SDTMIG v3.4 Metadata" OID="MDV.SDTMIG.v3.4" def:DefineVersion="2.1.0"
            mdr:DatePublished="2021-11-29">
            <def:Standards>
                <def:Standard Name="SDTMIG v3.4" OID="STD.SDTMIGv3.4" Status="Final" Type="IG"
                    Version="3-4"/>
            </def:Standards>
            <ItemGroupDef Domain="AG" Name="AG" OID="IGD.AG" Purpose="Tabulation" Repeating="No"
                def:Structure="One record per recorded intervention occurrence per subject">
                <Description>
                    <TranslatedText xml:lang="en">Procedure Agents</TranslatedText>
                </Description>
                <ItemRef ItemOID="IT.AG.STUDYID" Mandatory="No" OrderNumber="1" Role="Identifier"/>
                <ItemRef ItemOID="IT.AG.DOMAIN" Mandatory="No" OrderNumber="2" Role="Identifier"/>
                <ItemRef ItemOID="IT.AG.USUBJID" Mandatory="No" OrderNumber="3" Role="Identifier"/>
                <ItemRef ItemOID="IT.AG.AGSEQ" Mandatory="No" OrderNumber="4" Role="Identifier"/>
                <ItemRef ItemOID="IT.AG.AGGRPID" Mandatory="No" OrderNumber="5" Role="Identifier"/>
                <ItemRef ItemOID="IT.AG.AGSPID" Mandatory="No" OrderNumber="6" Role="Identifier"/>
                <ItemRef ItemOID="IT.AG.AGLNKID" Mandatory="No" OrderNumber="7" Role="Identifier"/>
                <ItemRef ItemOID="IT.AG.AGLNKGRP" Mandatory="No" OrderNumber="8" Role="Identifier"/>
                <ItemRef ItemOID="IT.AG.AGTRT" Mandatory="No" OrderNumber="9" Role="Topic"/>
                <ItemRef ItemOID="IT.AG.AGMODIFY" Mandatory="No" OrderNumber="10"
                    Role="Synonym Qualifier"/>
                <ItemRef ItemOID="IT.AG.AGDECOD" Mandatory="No" OrderNumber="11"
                    Role="Synonym Qualifier"/>
                <ItemRef ItemOID="IT.AG.AGCAT" Mandatory="No" OrderNumber="12"
                    Role="Grouping Qualifier"/>
                <ItemRef ItemOID="IT.AG.AGSCAT" Mandatory="No" OrderNumber="13"
                    Role="Grouping Qualifier"/>
                <ItemRef ItemOID="IT.AG.AGPRESP" Mandatory="No" OrderNumber="14"
                    Role="Variable Qualifier"/>
                <ItemRef ItemOID="IT.AG.AGOCCUR" Mandatory="No" OrderNumber="15"
                    Role="Record Qualifier"/>
                <ItemRef ItemOID="IT.AG.AGSTAT" Mandatory="No" OrderNumber="16"
                    Role="Record Qualifier"/>
                <ItemRef ItemOID="IT.AG.AGREASND" Mandatory="No" OrderNumber="17"
                    Role="Record Qualifier"/>
                <ItemRef ItemOID="IT.AG.AGCLAS" Mandatory="No" OrderNumber="18"
                    Role="Variable Qualifier"/>
                <ItemRef ItemOID="IT.AG.AGCLASCD" Mandatory="No" OrderNumber="19"
                    Role="Variable Qualifier"/>
                <ItemRef ItemOID="IT.AG.AGDOSE" Mandatory="No" OrderNumber="20"
                    Role="Record Qualifier"/>
                <ItemRef ItemOID="IT.AG.AGDOSTXT" Mandatory="No" OrderNumber="21"
                    Role="Record Qualifier"/>
                <ItemRef ItemOID="IT.AG.AGDOSU" Mandatory="No" OrderNumber="22"
                    Role="Variable Qualifier"/>
                <ItemRef ItemOID="IT.AG.AGDOSFRM" Mandatory="No" OrderNumber="23"
                    Role="Variable Qualifier"/>
                <ItemRef ItemOID="IT.AG.AGDOSFRQ" Mandatory="No" OrderNumber="24"
                    Role="Record Qualifier"/>
                <ItemRef ItemOID="IT.AG.AGROUTE" Mandatory="No" OrderNumber="25"
                    Role="Variable Qualifier"/>
                <ItemRef ItemOID="IT.AG.VISITNUM" Mandatory="No" OrderNumber="26" Role="Timing"/>
                <ItemRef ItemOID="IT.AG.VISIT" Mandatory="No" OrderNumber="27" Role="Timing"/>
                <ItemRef ItemOID="IT.AG.VISITDY" Mandatory="No" OrderNumber="28" Role="Timing"/>
                <ItemRef ItemOID="IT.AG.TAETORD" Mandatory="No" OrderNumber="29" Role="Timing"/>
                <ItemRef ItemOID="IT.AG.EPOCH" Mandatory="No" OrderNumber="30" Role="Timing"/>
                <ItemRef ItemOID="IT.AG.AGSTDTC" Mandatory="No" OrderNumber="31" Role="Timing"/>
                <ItemRef ItemOID="IT.AG.AGENDTC" Mandatory="No" OrderNumber="32" Role="Timing"/>
                <ItemRef ItemOID="IT.AG.AGSTDY" Mandatory="No" OrderNumber="33" Role="Timing"/>
                <ItemRef ItemOID="IT.AG.AGENDY" Mandatory="No" OrderNumber="34" Role="Timing"/>
                <ItemRef ItemOID="IT.AG.AGDUR" Mandatory="No" OrderNumber="35" Role="Timing"/>
                <ItemRef ItemOID="IT.AG.AGSTRF" Mandatory="No" OrderNumber="36" Role="Timing"/>
                <ItemRef ItemOID="IT.AG.AGENRF" Mandatory="No" OrderNumber="37" Role="Timing"/>
                <ItemRef ItemOID="IT.AG.AGSTRTPT" Mandatory="No" OrderNumber="38" Role="Timing"/>
                <ItemRef ItemOID="IT.AG.AGSTTPT" Mandatory="No" OrderNumber="39" Role="Timing"/>
                <ItemRef ItemOID="IT.AG.AGENRTPT" Mandatory="No" OrderNumber="40" Role="Timing"/>
                <ItemRef ItemOID="IT.AG.AGENTPT" Mandatory="No" OrderNumber="41" Role="Timing"/>
                <def:Class Name="INTERVENTIONS"/>
            </ItemGroupDef>
            <ItemGroupDef Domain="CM" Name="CM" OID="IGD.CM" Purpose="Tabulation" Repeating="No"
                def:Structure="One record per recorded intervention occurrence or constant-dosing interval per subject">
                <Description>
                    <TranslatedText xml:lang="en">Concomitant/Prior Medications</TranslatedText>
                </Description>
                <ItemRef ItemOID="IT.CM.STUDYID" Mandatory="No" OrderNumber="1" Role="Identifier"/>
                <ItemRef ItemOID="IT.CM.DOMAIN" Mandatory="No" OrderNumber="2" Role="Identifier"/>
                <ItemRef ItemOID="IT.CM.USUBJID" Mandatory="No" OrderNumber="3" Role="Identifier"/>
                <ItemRef ItemOID="IT.CM.CMSEQ" Mandatory="No" OrderNumber="4" Role="Identifier"/>
                <ItemRef ItemOID="IT.CM.CMGRPID" Mandatory="No" OrderNumber="5" Role="Identifier"/>
                <ItemRef ItemOID="IT.CM.CMSPID" Mandatory="No" OrderNumber="6" Role="Identifier"/>
                <ItemRef ItemOID="IT.CM.CMTRT" Mandatory="No" OrderNumber="7" Role="Topic"/>
                <ItemRef ItemOID="IT.CM.CMMODIFY" Mandatory="No" OrderNumber="8"
                    Role="Synonym Qualifier"/>
                <ItemRef ItemOID="IT.CM.CMDECOD" Mandatory="No" OrderNumber="9"
                    Role="Synonym Qualifier"/>
                <ItemRef ItemOID="IT.CM.CMCAT" Mandatory="No" OrderNumber="10"
                    Role="Grouping Qualifier"/>
                <ItemRef ItemOID="IT.CM.CMSCAT" Mandatory="No" OrderNumber="11"
                    Role="Grouping Qualifier"/>
                <ItemRef ItemOID="IT.CM.CMPRESP" Mandatory="No" OrderNumber="12"
                    Role="Variable Qualifier"/>
                <ItemRef ItemOID="IT.CM.CMOCCUR" Mandatory="No" OrderNumber="13"
                    Role="Record Qualifier"/>
                <ItemRef ItemOID="IT.CM.CMSTAT" Mandatory="No" OrderNumber="14"
                    Role="Record Qualifier"/>
                <ItemRef ItemOID="IT.CM.CMREASND" Mandatory="No" OrderNumber="15"
                    Role="Record Qualifier"/>
                <ItemRef ItemOID="IT.CM.CMINDC" Mandatory="No" OrderNumber="16"
                    Role="Record Qualifier"/>
                <ItemRef ItemOID="IT.CM.CMCLAS" Mandatory="No" OrderNumber="17"
                    Role="Variable Qualifier"/>
                <ItemRef ItemOID="IT.CM.CMCLASCD" Mandatory="No" OrderNumber="18"
                    Role="Variable Qualifier"/>
                <ItemRef ItemOID="IT.CM.CMDOSE" Mandatory="No" OrderNumber="19"
                    Role="Record Qualifier"/>
                <ItemRef ItemOID="IT.CM.CMDOSTXT" Mandatory="No" OrderNumber="20"
                    Role="Record Qualifier"/>
                <ItemRef ItemOID="IT.CM.CMDOSU" Mandatory="No" OrderNumber="21"
                    Role="Variable Qualifier"/>
                <ItemRef ItemOID="IT.CM.CMDOSFRM" Mandatory="No" OrderNumber="22"
                    Role="Variable Qualifier"/>
                <ItemRef ItemOID="IT.CM.CMDOSFRQ" Mandatory="No" OrderNumber="23"
                    Role="Record Qualifier"/>
                <ItemRef ItemOID="IT.CM.CMDOSTOT" Mandatory="No" OrderNumber="24"
                    Role="Record Qualifier"/>
                <ItemRef ItemOID="IT.CM.CMDOSRGM" Mandatory="No" OrderNumber="25"
                    Role="Record Qualifier"/>
                <ItemRef ItemOID="IT.CM.CMROUTE" Mandatory="No" OrderNumber="26"
                    Role="Variable Qualifier"/>
                <ItemRef ItemOID="IT.CM.CMADJ" Mandatory="No" OrderNumber="27"
                    Role="Record Qualifier"/>
                <ItemRef ItemOID="IT.CM.CMRSDISC" Mandatory="No" OrderNumber="28"
                    Role="Record Qualifier"/>
                <ItemRef ItemOID="IT.CM.TAETORD" Mandatory="No" OrderNumber="29" Role="Timing"/>
                <ItemRef ItemOID="IT.CM.EPOCH" Mandatory="No" OrderNumber="30" Role="Timing"/>
                <ItemRef ItemOID="IT.CM.CMSTDTC" Mandatory="No" OrderNumber="31" Role="Timing"/>
                <ItemRef ItemOID="IT.CM.CMENDTC" Mandatory="No" OrderNumber="32" Role="Timing"/>
                <ItemRef ItemOID="IT.CM.CMSTDY" Mandatory="No" OrderNumber="33" Role="Timing"/>
                <ItemRef ItemOID="IT.CM.CMENDY" Mandatory="No" OrderNumber="34" Role="Timing"/>
                <ItemRef ItemOID="IT.CM.CMDUR" Mandatory="No" OrderNumber="35" Role="Timing"/>
                <ItemRef ItemOID="IT.CM.CMSTRF" Mandatory="No" OrderNumber="36" Role="Timing"/>
                <ItemRef ItemOID="IT.CM.CMENRF" Mandatory="No" OrderNumber="37" Role="Timing"/>
                <ItemRef ItemOID="IT.CM.CMSTRTPT" Mandatory="No" OrderNumber="38" Role="Timing"/>
                <ItemRef ItemOID="IT.CM.CMSTTPT" Mandatory="No" OrderNumber="39" Role="Timing"/>
                <ItemRef ItemOID="IT.CM.CMENRTPT" Mandatory="No" OrderNumber="40" Role="Timing"/>
                <ItemRef ItemOID="IT.CM.CMENTPT" Mandatory="No" OrderNumber="41" Role="Timing"/>
                <def:Class Name="INTERVENTIONS"/>
            </ItemGroupDef>
            <ItemGroupDef Domain="EC" Name="EC" OID="IGD.EC" Purpose="Tabulation" Repeating="No"
                def:Structure="One record per protocol-specified study treatment, collected-dosing interval, per subject, per mood">
                <Description>
                    <TranslatedText xml:lang="en">Exposure as Collected</TranslatedText>
                </Description>
                <ItemRef ItemOID="IT.EC.STUDYID" Mandatory="No" OrderNumber="1" Role="Identifier"/>
                <ItemRef ItemOID="IT.EC.DOMAIN" Mandatory="No" OrderNumber="2" Role="Identifier"/>
                <ItemRef ItemOID="IT.EC.USUBJID" Mandatory="No" OrderNumber="3" Role="Identifier"/>
                <ItemRef ItemOID="IT.EC.ECSEQ" Mandatory="No" OrderNumber="4" Role="Identifier"/>
                <ItemRef ItemOID="IT.EC.ECGRPID" Mandatory="No" OrderNumber="5" Role="Identifier"/>
                <ItemRef ItemOID="IT.EC.ECREFID" Mandatory="No" OrderNumber="6" Role="Identifier"/>
                <ItemRef ItemOID="IT.EC.ECSPID" Mandatory="No" OrderNumber="7" Role="Identifier"/>
                <ItemRef ItemOID="IT.EC.ECLNKID" Mandatory="No" OrderNumber="8" Role="Identifier"/>
                <ItemRef ItemOID="IT.EC.ECLNKGRP" Mandatory="No" OrderNumber="9" Role="Identifier"/>
                <ItemRef ItemOID="IT.EC.ECTRT" Mandatory="No" OrderNumber="10" Role="Topic"/>
                <ItemRef ItemOID="IT.EC.ECMOOD" Mandatory="No" OrderNumber="11"
                    Role="Record Qualifier"/>
                <ItemRef ItemOID="IT.EC.ECCAT" Mandatory="No" OrderNumber="12"
                    Role="Grouping Qualifier"/>
                <ItemRef ItemOID="IT.EC.ECSCAT" Mandatory="No" OrderNumber="13"
                    Role="Grouping Qualifier"/>
                <ItemRef ItemOID="IT.EC.ECPRESP" Mandatory="No" OrderNumber="14"
                    Role="Variable Qualifier"/>
                <ItemRef ItemOID="IT.EC.ECOCCUR" Mandatory="No" OrderNumber="15"
                    Role="Record Qualifier"/>
                <ItemRef ItemOID="IT.EC.ECREASOC" Mandatory="No" OrderNumber="16"
                    Role="Record Qualifier"/>
                <ItemRef ItemOID="IT.EC.ECDOSE" Mandatory="No" OrderNumber="17"
                    Role="Record Qualifier"/>
                <ItemRef ItemOID="IT.EC.ECDOSTXT" Mandatory="No" OrderNumber="18"
                    Role="Record Qualifier"/>
                <ItemRef ItemOID="IT.EC.ECDOSU" Mandatory="No" OrderNumber="19"
                    Role="Variable Qualifier"/>
                <ItemRef ItemOID="IT.EC.ECDOSFRM" Mandatory="No" OrderNumber="20"
                    Role="Variable Qualifier"/>
                <ItemRef ItemOID="IT.EC.ECDOSFRQ" Mandatory="No" OrderNumber="21"
                    Role="Record Qualifier"/>
                <ItemRef ItemOID="IT.EC.ECDOSTOT" Mandatory="No" OrderNumber="22"
                    Role="Record Qualifier"/>
                <ItemRef ItemOID="IT.EC.ECDOSRGM" Mandatory="No" OrderNumber="23"
                    Role="Record Qualifier"/>
                <ItemRef ItemOID="IT.EC.ECROUTE" Mandatory="No" OrderNumber="24"
                    Role="Variable Qualifier"/>
                <ItemRef ItemOID="IT.EC.ECLOT" Mandatory="No" OrderNumber="25"
                    Role="Record Qualifier"/>
                <ItemRef ItemOID="IT.EC.ECLOC" Mandatory="No" OrderNumber="26"
                    Role="Record Qualifier"/>
                <ItemRef ItemOID="IT.EC.ECLAT" Mandatory="No" OrderNumber="27"
                    Role="Variable Qualifier"/>
                <ItemRef ItemOID="IT.EC.ECDIR" Mandatory="No" OrderNumber="28"
                    Role="Variable Qualifier"/>
                <ItemRef ItemOID="IT.EC.ECPORTOT" Mandatory="No" OrderNumber="29"
                    Role="Variable Qualifier"/>
                <ItemRef ItemOID="IT.EC.ECFAST" Mandatory="No" OrderNumber="30"
                    Role="Record Qualifier"/>
                <ItemRef ItemOID="IT.EC.ECPSTRG" Mandatory="No" OrderNumber="31"
                    Role="Record Qualifier"/>
                <ItemRef ItemOID="IT.EC.ECPSTRGU" Mandatory="No" OrderNumber="32"
                    Role="Variable Qualifier"/>
                <ItemRef ItemOID="IT.EC.ECADJ" Mandatory="No" OrderNumber="33"
                    Role="Record Qualifier"/>
                <ItemRef ItemOID="IT.EC.TAETORD" Mandatory="No" OrderNumber="34" Role="Timing"/>
                <ItemRef ItemOID="IT.EC.EPOCH" Mandatory="No" OrderNumber="35" Role="Timing"/>
                <ItemRef ItemOID="IT.EC.ECSTDTC" Mandatory="No" OrderNumber="36" Role="Timing"/>
                <ItemRef ItemOID="IT.EC.ECENDTC" Mandatory="No" OrderNumber="37" Role="Timing"/>
                <ItemRef ItemOID="IT.EC.ECSTDY" Mandatory="No" OrderNumber="38" Role="Timing"/>
                <ItemRef ItemOID="IT.EC.ECENDY" Mandatory="No" OrderNumber="39" Role="Timing"/>
                <ItemRef ItemOID="IT.EC.ECDUR" Mandatory="No" OrderNumber="40" Role="Timing"/>
                <ItemRef ItemOID="IT.EC.ECTPT" Mandatory="No" OrderNumber="41" Role="Timing"/>
                <ItemRef ItemOID="IT.EC.ECTPTNUM" Mandatory="No" OrderNumber="42" Role="Timing"/>
                <ItemRef ItemOID="IT.EC.ECELTM" Mandatory="No" OrderNumber="43" Role="Timing"/>
                <ItemRef ItemOID="IT.EC.ECTPTREF" Mandatory="No" OrderNumber="44" Role="Timing"/>
                <ItemRef ItemOID="IT.EC.ECRFTDTC" Mandatory="No" OrderNumber="45" Role="Timing"/>
                <def:Class Name="INTERVENTIONS"/>
            </ItemGroupDef>
            <ItemGroupDef Domain="EX" Name="EX" OID="IGD.EX" Purpose="Tabulation" Repeating="No"
                def:Structure="One record per protocol-specified study treatment, constant-dosing interval, per subject">
                <Description>
                    <TranslatedText xml:lang="en">Exposure</TranslatedText>
                </Description>
                <ItemRef ItemOID="IT.EX.STUDYID" Mandatory="No" OrderNumber="1" Role="Identifier"/>
                <ItemRef ItemOID="IT.EX.DOMAIN" Mandatory="No" OrderNumber="2" Role="Identifier"/>
                <ItemRef ItemOID="IT.EX.USUBJID" Mandatory="No" OrderNumber="3" Role="Identifier"/>
                <ItemRef ItemOID="IT.EX.EXSEQ" Mandatory="No" OrderNumber="4" Role="Identifier"/>
                <ItemRef ItemOID="IT.EX.EXGRPID" Mandatory="No" OrderNumber="5" Role="Identifier"/>
                <ItemRef ItemOID="IT.EX.EXREFID" Mandatory="No" OrderNumber="6" Role="Identifier"/>
                <ItemRef ItemOID="IT.EX.EXSPID" Mandatory="No" OrderNumber="7" Role="Identifier"/>
                <ItemRef ItemOID="IT.EX.EXLNKID" Mandatory="No" OrderNumber="8" Role="Identifier"/>
                <ItemRef ItemOID="IT.EX.EXLNKGRP" Mandatory="No" OrderNumber="9" Role="Identifier"/>
                <ItemRef ItemOID="IT.EX.EXTRT" Mandatory="No" OrderNumber="10" Role="Topic"/>
                <ItemRef ItemOID="IT.EX.EXCAT" Mandatory="No" OrderNumber="11"
                    Role="Grouping Qualifier"/>
                <ItemRef ItemOID="IT.EX.EXSCAT" Mandatory="No" OrderNumber="12"
                    Role="Grouping Qualifier"/>
                <ItemRef ItemOID="IT.EX.EXDOSE" Mandatory="No" OrderNumber="13"
                    Role="Record Qualifier"/>
                <ItemRef ItemOID="IT.EX.EXDOSTXT" Mandatory="No" OrderNumber="14"
                    Role="Record Qualifier"/>
                <ItemRef ItemOID="IT.EX.EXDOSU" Mandatory="No" OrderNumber="15"
                    Role="Variable Qualifier"/>
                <ItemRef ItemOID="IT.EX.EXDOSFRM" Mandatory="No" OrderNumber="16"
                    Role="Variable Qualifier"/>
                <ItemRef ItemOID="IT.EX.EXDOSFRQ" Mandatory="No" OrderNumber="17"
                    Role="Record Qualifier"/>
                <ItemRef ItemOID="IT.EX.EXDOSRGM" Mandatory="No" OrderNumber="18"
                    Role="Record Qualifier"/>
                <ItemRef ItemOID="IT.EX.EXROUTE" Mandatory="No" OrderNumber="19"
                    Role="Variable Qualifier"/>
                <ItemRef ItemOID="IT.EX.EXLOT" Mandatory="No" OrderNumber="20"
                    Role="Record Qualifier"/>
                <ItemRef ItemOID="IT.EX.EXLOC" Mandatory="No" OrderNumber="21"
                    Role="Record Qualifier"/>
                <ItemRef ItemOID="IT.EX.EXLAT" Mandatory="No" OrderNumber="22"
                    Role="Variable Qualifier"/>
                <ItemRef ItemOID="IT.EX.EXDIR" Mandatory="No" OrderNumber="23"
                    Role="Variable Qualifier"/>
                <ItemRef ItemOID="IT.EX.EXFAST" Mandatory="No" OrderNumber="24"
                    Role="Record Qualifier"/>
                <ItemRef ItemOID="IT.EX.EXADJ" Mandatory="No" OrderNumber="25"
                    Role="Record Qualifier"/>
                <ItemRef ItemOID="IT.EX.TAETORD" Mandatory="No" OrderNumber="26" Role="Timing"/>
                <ItemRef ItemOID="IT.EX.EPOCH" Mandatory="No" OrderNumber="27" Role="Timing"/>
                <ItemRef ItemOID="IT.EX.EXSTDTC" Mandatory="No" OrderNumber="28" Role="Timing"/>
                <ItemRef ItemOID="IT.EX.EXENDTC" Mandatory="No" OrderNumber="29" Role="Timing"/>
                <ItemRef ItemOID="IT.EX.EXSTDY" Mandatory="No" OrderNumber="30" Role="Timing"/>
                <ItemRef ItemOID="IT.EX.EXENDY" Mandatory="No" OrderNumber="31" Role="Timing"/>
                <ItemRef ItemOID="IT.EX.EXDUR" Mandatory="No" OrderNumber="32" Role="Timing"/>
                <ItemRef ItemOID="IT.EX.EXTPT" Mandatory="No" OrderNumber="33" Role="Timing"/>
                <ItemRef ItemOID="IT.EX.EXTPTNUM" Mandatory="No" OrderNumber="34" Role="Timing"/>
                <ItemRef ItemOID="IT.EX.EXELTM" Mandatory="No" OrderNumber="35" Role="Timing"/>
                <ItemRef ItemOID="IT.EX.EXTPTREF" Mandatory="No" OrderNumber="36" Role="Timing"/>
                <ItemRef ItemOID="IT.EX.EXRFTDTC" Mandatory="No" OrderNumber="37" Role="Timing"/>
                <def:Class Name="INTERVENTIONS"/>
            </ItemGroupDef>
            <ItemGroupDef Domain="ML" Name="ML" OID="IGD.ML" Purpose="Tabulation" Repeating="No"
                def:Structure="One record per food product occurrence or constant intake interval per subject">
                <Description>
                    <TranslatedText xml:lang="en">Meal Data</TranslatedText>
                </Description>
                <ItemRef ItemOID="IT.ML.STUDYID" Mandatory="No" OrderNumber="1" Role="Identifier"/>
                <ItemRef ItemOID="IT.ML.DOMAIN" Mandatory="No" OrderNumber="2" Role="Identifier"/>
                <ItemRef ItemOID="IT.ML.USUBJID" Mandatory="No" OrderNumber="3" Role="Identifier"/>
                <ItemRef ItemOID="IT.ML.MLSEQ" Mandatory="No" OrderNumber="4" Role="Identifier"/>
                <ItemRef ItemOID="IT.ML.MLGRPID" Mandatory="No" OrderNumber="5" Role="Identifier"/>
                <ItemRef ItemOID="IT.ML.MLSPID" Mandatory="No" OrderNumber="6" Role="Identifier"/>
                <ItemRef ItemOID="IT.ML.MLTRT" Mandatory="No" OrderNumber="7" Role="Topic"/>
                <ItemRef ItemOID="IT.ML.MLCAT" Mandatory="No" OrderNumber="8"
                    Role="Grouping Qualifier"/>
                <ItemRef ItemOID="IT.ML.MLSCAT" Mandatory="No" OrderNumber="9"
                    Role="Grouping Qualifier"/>
                <ItemRef ItemOID="IT.ML.MLPRESP" Mandatory="No" OrderNumber="10"
                    Role="Variable Qualifier"/>
                <ItemRef ItemOID="IT.ML.MLOCCUR" Mandatory="No" OrderNumber="11"
                    Role="Record Qualifier"/>
                <ItemRef ItemOID="IT.ML.MLSTAT" Mandatory="No" OrderNumber="12"
                    Role="Record Qualifier"/>
                <ItemRef ItemOID="IT.ML.MLREASND" Mandatory="No" OrderNumber="13"
                    Role="Record Qualifier"/>
                <ItemRef ItemOID="IT.ML.MLDOSE" Mandatory="No" OrderNumber="14"
                    Role="Record Qualifier"/>
                <ItemRef ItemOID="IT.ML.MLDOSTXT" Mandatory="No" OrderNumber="15"
                    Role="Record Qualifier"/>
                <ItemRef ItemOID="IT.ML.MLDOSU" Mandatory="No" OrderNumber="16"
                    Role="Variable Qualifier"/>
                <ItemRef ItemOID="IT.ML.MLDOSFRM" Mandatory="No" OrderNumber="17"
                    Role="Variable Qualifier"/>
                <ItemRef ItemOID="IT.ML.VISITNUM" Mandatory="No" OrderNumber="18" Role="Timing"/>
                <ItemRef ItemOID="IT.ML.VISIT" Mandatory="No" OrderNumber="19" Role="Timing"/>
                <ItemRef ItemOID="IT.ML.VISITDY" Mandatory="No" OrderNumber="20" Role="Timing"/>
                <ItemRef ItemOID="IT.ML.TAETORD" Mandatory="No" OrderNumber="21" Role="Timing"/>
                <ItemRef ItemOID="IT.ML.EPOCH" Mandatory="No" OrderNumber="22" Role="Timing"/>
                <ItemRef ItemOID="IT.ML.MLDTC" Mandatory="No" OrderNumber="23" Role="Timing"/>
                <ItemRef ItemOID="IT.ML.MLSTDTC" Mandatory="No" OrderNumber="24" Role="Timing"/>
                <ItemRef ItemOID="IT.ML.MLENDTC" Mandatory="No" OrderNumber="25" Role="Timing"/>
                <ItemRef ItemOID="IT.ML.MLDY" Mandatory="No" OrderNumber="26" Role="Timing"/>
                <ItemRef ItemOID="IT.ML.MLSTDY" Mandatory="No" OrderNumber="27" Role="Timing"/>
                <ItemRef ItemOID="IT.ML.MLENDY" Mandatory="No" OrderNumber="28" Role="Timing"/>
                <ItemRef ItemOID="IT.ML.MLDUR" Mandatory="No" OrderNumber="29" Role="Timing"/>
                <ItemRef ItemOID="IT.ML.MLTPT" Mandatory="No" OrderNumber="30" Role="Timing"/>
                <ItemRef ItemOID="IT.ML.MLTPTNUM" Mandatory="No" OrderNumber="31" Role="Timing"/>
                <ItemRef ItemOID="IT.ML.MLELTM" Mandatory="No" OrderNumber="32" Role="Timing"/>
                <ItemRef ItemOID="IT.ML.MLTPTREF" Mandatory="No" OrderNumber="33" Role="Timing"/>
                <ItemRef ItemOID="IT.ML.MLRFTDTC" Mandatory="No" OrderNumber="34" Role="Timing"/>
                <ItemRef ItemOID="IT.ML.MIDS" Mandatory="No" OrderNumber="35" Role="Timing"/>
                <ItemRef ItemOID="IT.ML.RELMIDS" Mandatory="No" OrderNumber="36" Role="Timing"/>
                <ItemRef ItemOID="IT.ML.MIDSDTC" Mandatory="No" OrderNumber="37" Role="Timing"/>
                <def:Class Name="INTERVENTIONS"/>
            </ItemGroupDef>
            <ItemGroupDef Domain="PR" Name="PR" OID="IGD.PR" Purpose="Tabulation" Repeating="No"
                def:Structure="One record per recorded procedure per occurrence per subject">
                <Description>
                    <TranslatedText xml:lang="en">Procedures</TranslatedText>
                </Description>
                <ItemRef ItemOID="IT.PR.STUDYID" Mandatory="No" OrderNumber="1" Role="Identifier"/>
                <ItemRef ItemOID="IT.PR.DOMAIN" Mandatory="No" OrderNumber="2" Role="Identifier"/>
                <ItemRef ItemOID="IT.PR.USUBJID" Mandatory="No" OrderNumber="3" Role="Identifier"/>
                <ItemRef ItemOID="IT.PR.PRSEQ" Mandatory="No" OrderNumber="4" Role="Identifier"/>
                <ItemRef ItemOID="IT.PR.PRGRPID" Mandatory="No" OrderNumber="5" Role="Identifier"/>
                <ItemRef ItemOID="IT.PR.PRSPID" Mandatory="No" OrderNumber="6" Role="Identifier"/>
                <ItemRef ItemOID="IT.PR.PRLNKID" Mandatory="No" OrderNumber="7" Role="Identifier"/>
                <ItemRef ItemOID="IT.PR.PRLNKGRP" Mandatory="No" OrderNumber="8" Role="Identifier"/>
                <ItemRef ItemOID="IT.PR.PRTRT" Mandatory="No" OrderNumber="9" Role="Topic"/>
                <ItemRef ItemOID="IT.PR.PRDECOD" Mandatory="No" OrderNumber="10"
                    Role="Synonym Qualifier"/>
                <ItemRef ItemOID="IT.PR.PRCAT" Mandatory="No" OrderNumber="11"
                    Role="Grouping Qualifier"/>
                <ItemRef ItemOID="IT.PR.PRSCAT" Mandatory="No" OrderNumber="12"
                    Role="Grouping Qualifier"/>
                <ItemRef ItemOID="IT.PR.PRPRESP" Mandatory="No" OrderNumber="13"
                    Role="Variable Qualifier"/>
                <ItemRef ItemOID="IT.PR.PROCCUR" Mandatory="No" OrderNumber="14"
                    Role="Record Qualifier"/>
                <ItemRef ItemOID="IT.PR.PRINDC" Mandatory="No" OrderNumber="15"
                    Role="Record Qualifier"/>
                <ItemRef ItemOID="IT.PR.PRDOSE" Mandatory="No" OrderNumber="16"
                    Role="Record Qualifier"/>
                <ItemRef ItemOID="IT.PR.PRDOSTXT" Mandatory="No" OrderNumber="17"
                    Role="Record Qualifier"/>
                <ItemRef ItemOID="IT.PR.PRDOSU" Mandatory="No" OrderNumber="18"
                    Role="Variable Qualifier"/>
                <ItemRef ItemOID="IT.PR.PRDOSFRM" Mandatory="No" OrderNumber="19"
                    Role="Variable Qualifier"/>
                <ItemRef ItemOID="IT.PR.PRDOSFRQ" Mandatory="No" OrderNumber="20"
                    Role="Record Qualifier"/>
                <ItemRef ItemOID="IT.PR.PRDOSRGM" Mandatory="No" OrderNumber="21"
                    Role="Record Qualifier"/>
                <ItemRef ItemOID="IT.PR.PRROUTE" Mandatory="No" OrderNumber="22"
                    Role="Variable Qualifier"/>
                <ItemRef ItemOID="IT.PR.PRLOC" Mandatory="No" OrderNumber="23"
                    Role="Record Qualifier"/>
                <ItemRef ItemOID="IT.PR.PRLAT" Mandatory="No" OrderNumber="24"
                    Role="Variable Qualifier"/>
                <ItemRef ItemOID="IT.PR.PRDIR" Mandatory="No" OrderNumber="25"
                    Role="Variable Qualifier"/>
                <ItemRef ItemOID="IT.PR.PRPORTOT" Mandatory="No" OrderNumber="26"
                    Role="Variable Qualifier"/>
                <ItemRef ItemOID="IT.PR.VISITNUM" Mandatory="No" OrderNumber="27" Role="Timing"/>
                <ItemRef ItemOID="IT.PR.VISIT" Mandatory="No" OrderNumber="28" Role="Timing"/>
                <ItemRef ItemOID="IT.PR.VISITDY" Mandatory="No" OrderNumber="29" Role="Timing"/>
                <ItemRef ItemOID="IT.PR.TAETORD" Mandatory="No" OrderNumber="30" Role="Timing"/>
                <ItemRef ItemOID="IT.PR.EPOCH" Mandatory="No" OrderNumber="31" Role="Timing"/>
                <ItemRef ItemOID="IT.PR.PRSTDTC" Mandatory="No" OrderNumber="32" Role="Timing"/>
                <ItemRef ItemOID="IT.PR.PRENDTC" Mandatory="No" OrderNumber="33" Role="Timing"/>
                <ItemRef ItemOID="IT.PR.PRSTDY" Mandatory="No" OrderNumber="34" Role="Timing"/>
                <ItemRef ItemOID="IT.PR.PRENDY" Mandatory="No" OrderNumber="35" Role="Timing"/>
                <ItemRef ItemOID="IT.PR.PRDUR" Mandatory="No" OrderNumber="36" Role="Timing"/>
                <ItemRef ItemOID="IT.PR.PRTPT" Mandatory="No" OrderNumber="37" Role="Timing"/>
                <ItemRef ItemOID="IT.PR.PRTPTNUM" Mandatory="No" OrderNumber="38" Role="Timing"/>
                <ItemRef ItemOID="IT.PR.PRELTM" Mandatory="No" OrderNumber="39" Role="Timing"/>
                <ItemRef ItemOID="IT.PR.PRTPTREF" Mandatory="No" OrderNumber="40" Role="Timing"/>
                <ItemRef ItemOID="IT.PR.PRRFTDTC" Mandatory="No" OrderNumber="41" Role="Timing"/>
                <ItemRef ItemOID="IT.PR.PRSTRTPT" Mandatory="No" OrderNumber="42" Role="Timing"/>
                <ItemRef ItemOID="IT.PR.PRSTTPT" Mandatory="No" OrderNumber="43" Role="Timing"/>
                <ItemRef ItemOID="IT.PR.PRENRTPT" Mandatory="No" OrderNumber="44" Role="Timing"/>
                <ItemRef ItemOID="IT.PR.PRENTPT" Mandatory="No" OrderNumber="45" Role="Timing"/>
                <def:Class Name="INTERVENTIONS"/>
            </ItemGroupDef>
            <ItemGroupDef Domain="SU" Name="SU" OID="IGD.SU" Purpose="Tabulation" Repeating="No"
                def:Structure="One record per substance type per reported occurrence per subject">
                <Description>
                    <TranslatedText xml:lang="en">Substance Use</TranslatedText>
                </Description>
                <ItemRef ItemOID="IT.SU.STUDYID" Mandatory="No" OrderNumber="1" Role="Identifier"/>
                <ItemRef ItemOID="IT.SU.DOMAIN" Mandatory="No" OrderNumber="2" Role="Identifier"/>
                <ItemRef ItemOID="IT.SU.USUBJID" Mandatory="No" OrderNumber="3" Role="Identifier"/>
                <ItemRef ItemOID="IT.SU.SUSEQ" Mandatory="No" OrderNumber="4" Role="Identifier"/>
                <ItemRef ItemOID="IT.SU.SUGRPID" Mandatory="No" OrderNumber="5" Role="Identifier"/>
                <ItemRef ItemOID="IT.SU.SUSPID" Mandatory="No" OrderNumber="6" Role="Identifier"/>
                <ItemRef ItemOID="IT.SU.SUTRT" Mandatory="No" OrderNumber="7" Role="Topic"/>
                <ItemRef ItemOID="IT.SU.SUMODIFY" Mandatory="No" OrderNumber="8"
                    Role="Synonym Qualifier"/>
                <ItemRef ItemOID="IT.SU.SUDECOD" Mandatory="No" OrderNumber="9"
                    Role="Synonym Qualifier"/>
                <ItemRef ItemOID="IT.SU.SUCAT" Mandatory="No" OrderNumber="10"
                    Role="Grouping Qualifier"/>
                <ItemRef ItemOID="IT.SU.SUSCAT" Mandatory="No" OrderNumber="11"
                    Role="Grouping Qualifier"/>
                <ItemRef ItemOID="IT.SU.SUPRESP" Mandatory="No" OrderNumber="12"
                    Role="Variable Qualifier"/>
                <ItemRef ItemOID="IT.SU.SUOCCUR" Mandatory="No" OrderNumber="13"
                    Role="Record Qualifier"/>
                <ItemRef ItemOID="IT.SU.SUSTAT" Mandatory="No" OrderNumber="14"
                    Role="Record Qualifier"/>
                <ItemRef ItemOID="IT.SU.SUREASND" Mandatory="No" OrderNumber="15"
                    Role="Record Qualifier"/>
                <ItemRef ItemOID="IT.SU.SUCLAS" Mandatory="No" OrderNumber="16"
                    Role="Variable Qualifier"/>
                <ItemRef ItemOID="IT.SU.SUCLASCD" Mandatory="No" OrderNumber="17"
                    Role="Variable Qualifier"/>
                <ItemRef ItemOID="IT.SU.SUDOSE" Mandatory="No" OrderNumber="18"
                    Role="Record Qualifier"/>
                <ItemRef ItemOID="IT.SU.SUDOSTXT" Mandatory="No" OrderNumber="19"
                    Role="Record Qualifier"/>
                <ItemRef ItemOID="IT.SU.SUDOSU" Mandatory="No" OrderNumber="20"
                    Role="Variable Qualifier"/>
                <ItemRef ItemOID="IT.SU.SUDOSFRM" Mandatory="No" OrderNumber="21"
                    Role="Variable Qualifier"/>
                <ItemRef ItemOID="IT.SU.SUDOSFRQ" Mandatory="No" OrderNumber="22"
                    Role="Variable Qualifier"/>
                <ItemRef ItemOID="IT.SU.SUDOSTOT" Mandatory="No" OrderNumber="23"
                    Role="Record Qualifier"/>
                <ItemRef ItemOID="IT.SU.SUROUTE" Mandatory="No" OrderNumber="24"
                    Role="Variable Qualifier"/>
                <ItemRef ItemOID="IT.SU.TAETORD" Mandatory="No" OrderNumber="25" Role="Timing"/>
                <ItemRef ItemOID="IT.SU.EPOCH" Mandatory="No" OrderNumber="26" Role="Timing"/>
                <ItemRef ItemOID="IT.SU.SUSTDTC" Mandatory="No" OrderNumber="27" Role="Timing"/>
                <ItemRef ItemOID="IT.SU.SUENDTC" Mandatory="No" OrderNumber="28" Role="Timing"/>
                <ItemRef ItemOID="IT.SU.SUSTDY" Mandatory="No" OrderNumber="29" Role="Timing"/>
                <ItemRef ItemOID="IT.SU.SUENDY" Mandatory="No" OrderNumber="30" Role="Timing"/>
                <ItemRef ItemOID="IT.SU.SUDUR" Mandatory="No" OrderNumber="31" Role="Timing"/>
                <ItemRef ItemOID="IT.SU.SUSTRF" Mandatory="No" OrderNumber="32" Role="Timing"/>
                <ItemRef ItemOID="IT.SU.SUENRF" Mandatory="No" OrderNumber="33" Role="Timing"/>
                <ItemRef ItemOID="IT.SU.SUSTRTPT" Mandatory="No" OrderNumber="34" Role="Timing"/>
                <ItemRef ItemOID="IT.SU.SUSTTPT" Mandatory="No" OrderNumber="35" Role="Timing"/>
                <ItemRef ItemOID="IT.SU.SUENRTPT" Mandatory="No" OrderNumber="36" Role="Timing"/>
                <ItemRef ItemOID="IT.SU.SUENTPT" Mandatory="No" OrderNumber="37" Role="Timing"/>
                <def:Class Name="INTERVENTIONS"/>
            </ItemGroupDef>
            <ItemGroupDef Domain="AE" Name="AE" OID="IGD.AE" Purpose="Tabulation" Repeating="No"
                def:Structure="One record per adverse event per subject">
                <Description>
                    <TranslatedText xml:lang="en">Adverse Events</TranslatedText>
                </Description>
                <ItemRef ItemOID="IT.AE.STUDYID" Mandatory="No" OrderNumber="1" Role="Identifier"/>
                <ItemRef ItemOID="IT.AE.DOMAIN" Mandatory="No" OrderNumber="2" Role="Identifier"/>
                <ItemRef ItemOID="IT.AE.USUBJID" Mandatory="No" OrderNumber="3" Role="Identifier"/>
                <ItemRef ItemOID="IT.AE.SPDEVID" Mandatory="No" OrderNumber="4" Role="Identifier"/>
                <ItemRef ItemOID="IT.AE.AESEQ" Mandatory="No" OrderNumber="5" Role="Identifier"/>
                <ItemRef ItemOID="IT.AE.AEGRPID" Mandatory="No" OrderNumber="6" Role="Identifier"/>
                <ItemRef ItemOID="IT.AE.AEREFID" Mandatory="No" OrderNumber="7" Role="Identifier"/>
                <ItemRef ItemOID="IT.AE.AESPID" Mandatory="No" OrderNumber="8" Role="Identifier"/>
                <ItemRef ItemOID="IT.AE.AETERM" Mandatory="No" OrderNumber="9" Role="Topic"/>
                <ItemRef ItemOID="IT.AE.AEMODIFY" Mandatory="No" OrderNumber="10"
                    Role="Synonym Qualifier"/>
                <ItemRef ItemOID="IT.AE.AELLT" Mandatory="No" OrderNumber="11"
                    Role="Variable Qualifier"/>
                <ItemRef ItemOID="IT.AE.AELLTCD" Mandatory="No" OrderNumber="12"
                    Role="Variable Qualifier"/>
                <ItemRef ItemOID="IT.AE.AEDECOD" Mandatory="No" OrderNumber="13"
                    Role="Synonym Qualifier"/>
                <ItemRef ItemOID="IT.AE.AEPTCD" Mandatory="No" OrderNumber="14"
                    Role="Variable Qualifier"/>
                <ItemRef ItemOID="IT.AE.AEHLT" Mandatory="No" OrderNumber="15"
                    Role="Variable Qualifier"/>
                <ItemRef ItemOID="IT.AE.AEHLTCD" Mandatory="No" OrderNumber="16"
                    Role="Variable Qualifier"/>
                <ItemRef ItemOID="IT.AE.AEHLGT" Mandatory="No" OrderNumber="17"
                    Role="Variable Qualifier"/>
                <ItemRef ItemOID="IT.AE.AEHLGTCD" Mandatory="No" OrderNumber="18"
                    Role="Variable Qualifier"/>
                <ItemRef ItemOID="IT.AE.AECAT" Mandatory="No" OrderNumber="19"
                    Role="Grouping Qualifier"/>
                <ItemRef ItemOID="IT.AE.AESCAT" Mandatory="No" OrderNumber="20"
                    Role="Grouping Qualifier"/>
                <ItemRef ItemOID="IT.AE.AEPRESP" Mandatory="No" OrderNumber="21"
                    Role="Variable Qualifier"/>
                <ItemRef ItemOID="IT.AE.AEBODSYS" Mandatory="No" OrderNumber="22"
                    Role="Record Qualifier"/>
                <ItemRef ItemOID="IT.AE.AEBDSYCD" Mandatory="No" OrderNumber="23"
                    Role="Variable Qualifier"/>
                <ItemRef ItemOID="IT.AE.AESOC" Mandatory="No" OrderNumber="24"
                    Role="Variable Qualifier"/>
                <ItemRef ItemOID="IT.AE.AESOCCD" Mandatory="No" OrderNumber="25"
                    Role="Variable Qualifier"/>
                <ItemRef ItemOID="IT.AE.AELOC" Mandatory="No" OrderNumber="26"
                    Role="Record Qualifier"/>
                <ItemRef ItemOID="IT.AE.AESEV" Mandatory="No" OrderNumber="27"
                    Role="Record Qualifier"/>
                <ItemRef ItemOID="IT.AE.AESER" Mandatory="No" OrderNumber="28"
                    Role="Record Qualifier"/>
                <ItemRef ItemOID="IT.AE.AEACN" Mandatory="No" OrderNumber="29"
                    Role="Record Qualifier"/>
                <ItemRef ItemOID="IT.AE.AEACNOTH" Mandatory="No" OrderNumber="30"
                    Role="Record Qualifier"/>
                <ItemRef ItemOID="IT.AE.AEACNDEV" Mandatory="No" OrderNumber="31"
                    Role="Record Qualifier"/>
                <ItemRef ItemOID="IT.AE.AEREL" Mandatory="No" OrderNumber="32"
                    Role="Record Qualifier"/>
                <ItemRef ItemOID="IT.AE.AERLDEV" Mandatory="No" OrderNumber="33"
                    Role="Record Qualifier"/>
                <ItemRef ItemOID="IT.AE.AERELNST" Mandatory="No" OrderNumber="34"
                    Role="Record Qualifier"/>
                <ItemRef ItemOID="IT.AE.AEPATT" Mandatory="No" OrderNumber="35"
                    Role="Record Qualifier"/>
                <ItemRef ItemOID="IT.AE.AEOUT" Mandatory="No" OrderNumber="36"
                    Role="Record Qualifier"/>
                <ItemRef ItemOID="IT.AE.AESCAN" Mandatory="No" OrderNumber="37"
                    Role="Record Qualifier"/>
                <ItemRef ItemOID="IT.AE.AESCONG" Mandatory="No" OrderNumber="38"
                    Role="Record Qualifier"/>
                <ItemRef ItemOID="IT.AE.AESDISAB" Mandatory="No" OrderNumber="39"
                    Role="Record Qualifier"/>
                <ItemRef ItemOID="IT.AE.AESDTH" Mandatory="No" OrderNumber="40"
                    Role="Record Qualifier"/>
                <ItemRef ItemOID="IT.AE.AESHOSP" Mandatory="No" OrderNumber="41"
                    Role="Record Qualifier"/>
                <ItemRef ItemOID="IT.AE.AESLIFE" Mandatory="No" OrderNumber="42"
                    Role="Record Qualifier"/>
                <ItemRef ItemOID="IT.AE.AESOD" Mandatory="No" OrderNumber="43"
                    Role="Record Qualifier"/>
                <ItemRef ItemOID="IT.AE.AESMIE" Mandatory="No" OrderNumber="44"
                    Role="Record Qualifier"/>
                <ItemRef ItemOID="IT.AE.AESINTV" Mandatory="No" OrderNumber="45"
                    Role="Record Qualifier"/>
                <ItemRef ItemOID="IT.AE.AEUNANT" Mandatory="No" OrderNumber="46"
                    Role="Record Qualifier"/>
                <ItemRef ItemOID="IT.AE.AERLPRT" Mandatory="No" OrderNumber="47"
                    Role="Record Qualifier"/>
                <ItemRef ItemOID="IT.AE.AERLPRC" Mandatory="No" OrderNumber="48"
                    Role="Record Qualifier"/>
                <ItemRef ItemOID="IT.AE.AECONTRT" Mandatory="No" OrderNumber="49"
                    Role="Record Qualifier"/>
                <ItemRef ItemOID="IT.AE.AETOXGR" Mandatory="No" OrderNumber="50"
                    Role="Record Qualifier"/>
                <ItemRef ItemOID="IT.AE.TAETORD" Mandatory="No" OrderNumber="51" Role="Timing"/>
                <ItemRef ItemOID="IT.AE.EPOCH" Mandatory="No" OrderNumber="52" Role="Timing"/>
                <ItemRef ItemOID="IT.AE.AESTDTC" Mandatory="No" OrderNumber="53" Role="Timing"/>
                <ItemRef ItemOID="IT.AE.AEENDTC" Mandatory="No" OrderNumber="54" Role="Timing"/>
                <ItemRef ItemOID="IT.AE.AESTDY" Mandatory="No" OrderNumber="55" Role="Timing"/>
                <ItemRef ItemOID="IT.AE.AEENDY" Mandatory="No" OrderNumber="56" Role="Timing"/>
                <ItemRef ItemOID="IT.AE.AEDUR" Mandatory="No" OrderNumber="57" Role="Timing"/>
                <ItemRef ItemOID="IT.AE.AEENRF" Mandatory="No" OrderNumber="58" Role="Timing"/>
                <ItemRef ItemOID="IT.AE.AEENRTPT" Mandatory="No" OrderNumber="59" Role="Timing"/>
                <ItemRef ItemOID="IT.AE.AEENTPT" Mandatory="No" OrderNumber="60" Role="Timing"/>
                <def:Class Name="EVENTS"/>
            </ItemGroupDef>
            <ItemGroupDef Domain="BE" Name="BE" OID="IGD.BE" Purpose="Tabulation" Repeating="No"
                def:Structure="One record per instance per biospecimen event per biospecimen identifier per subject">
                <Description>
                    <TranslatedText xml:lang="en">Biospecimen Events</TranslatedText>
                </Description>
                <ItemRef ItemOID="IT.BE.STUDYID" Mandatory="No" OrderNumber="1" Role="Identifier"/>
                <ItemRef ItemOID="IT.BE.DOMAIN" Mandatory="No" OrderNumber="2" Role="Identifier"/>
                <ItemRef ItemOID="IT.BE.USUBJID" Mandatory="No" OrderNumber="3" Role="Identifier"/>
                <ItemRef ItemOID="IT.BE.SPDEVID" Mandatory="No" OrderNumber="4" Role="Identifier"/>
                <ItemRef ItemOID="IT.BE.BESEQ" Mandatory="No" OrderNumber="5" Role="Identifier"/>
                <ItemRef ItemOID="IT.BE.BEGRPID" Mandatory="No" OrderNumber="6" Role="Identifier"/>
                <ItemRef ItemOID="IT.BE.BEREFID" Mandatory="No" OrderNumber="7" Role="Identifier"/>
                <ItemRef ItemOID="IT.BE.BESPID" Mandatory="No" OrderNumber="8" Role="Identifier"/>
                <ItemRef ItemOID="IT.BE.BETERM" Mandatory="No" OrderNumber="9" Role="Topic"/>
                <ItemRef ItemOID="IT.BE.BEMODIFY" Mandatory="No" OrderNumber="10"
                    Role="Synonym Qualifier"/>
                <ItemRef ItemOID="IT.BE.BEDECOD" Mandatory="No" OrderNumber="11"
                    Role="Synonym Qualifier"/>
                <ItemRef ItemOID="IT.BE.BECAT" Mandatory="No" OrderNumber="12"
                    Role="Grouping Qualifier"/>
                <ItemRef ItemOID="IT.BE.BESCAT" Mandatory="No" OrderNumber="13"
                    Role="Grouping Qualifier"/>
                <ItemRef ItemOID="IT.BE.BELOC" Mandatory="No" OrderNumber="14"
                    Role="Record Qualifier"/>
                <ItemRef ItemOID="IT.BE.BEPARTY" Mandatory="No" OrderNumber="15"
                    Role="Record Qualifier"/>
                <ItemRef ItemOID="IT.BE.BEPRTYID" Mandatory="No" OrderNumber="16"
                    Role="Record Qualifier"/>
                <ItemRef ItemOID="IT.BE.VISITNUM" Mandatory="No" OrderNumber="17" Role="Timing"/>
                <ItemRef ItemOID="IT.BE.VISIT" Mandatory="No" OrderNumber="18" Role="Timing"/>
                <ItemRef ItemOID="IT.BE.VISITDY" Mandatory="No" OrderNumber="19" Role="Timing"/>
                <ItemRef ItemOID="IT.BE.BEDTC" Mandatory="No" OrderNumber="20" Role="Timing"/>
                <ItemRef ItemOID="IT.BE.BESTDTC" Mandatory="No" OrderNumber="21" Role="Timing"/>
                <ItemRef ItemOID="IT.BE.BEENDTC" Mandatory="No" OrderNumber="22" Role="Timing"/>
                <ItemRef ItemOID="IT.BE.BESTDY" Mandatory="No" OrderNumber="23" Role="Timing"/>
                <ItemRef ItemOID="IT.BE.BEENDY" Mandatory="No" OrderNumber="24" Role="Timing"/>
                <ItemRef ItemOID="IT.BE.BEDUR" Mandatory="No" OrderNumber="25" Role="Timing"/>
                <def:Class Name="EVENTS"/>
            </ItemGroupDef>
            <ItemGroupDef Domain="CE" Name="CE" OID="IGD.CE" Purpose="Tabulation" Repeating="No"
                def:Structure="One record per event per subject">
                <Description>
                    <TranslatedText xml:lang="en">Clinical Events</TranslatedText>
                </Description>
                <ItemRef ItemOID="IT.CE.STUDYID" Mandatory="No" OrderNumber="1" Role="Identifier"/>
                <ItemRef ItemOID="IT.CE.DOMAIN" Mandatory="No" OrderNumber="2" Role="Identifier"/>
                <ItemRef ItemOID="IT.CE.USUBJID" Mandatory="No" OrderNumber="3" Role="Identifier"/>
                <ItemRef ItemOID="IT.CE.CESEQ" Mandatory="No" OrderNumber="4" Role="Identifier"/>
                <ItemRef ItemOID="IT.CE.CEGRPID" Mandatory="No" OrderNumber="5" Role="Identifier"/>
                <ItemRef ItemOID="IT.CE.CEREFID" Mandatory="No" OrderNumber="6" Role="Identifier"/>
                <ItemRef ItemOID="IT.CE.CESPID" Mandatory="No" OrderNumber="7" Role="Identifier"/>
                <ItemRef ItemOID="IT.CE.CETERM" Mandatory="No" OrderNumber="8" Role="Topic"/>
                <ItemRef ItemOID="IT.CE.CEDECOD" Mandatory="No" OrderNumber="9"
                    Role="Synonym Qualifier"/>
                <ItemRef ItemOID="IT.CE.CECAT" Mandatory="No" OrderNumber="10"
                    Role="Grouping Qualifier"/>
                <ItemRef ItemOID="IT.CE.CESCAT" Mandatory="No" OrderNumber="11"
                    Role="Grouping Qualifier"/>
                <ItemRef ItemOID="IT.CE.CEPRESP" Mandatory="No" OrderNumber="12"
                    Role="Variable Qualifier"/>
                <ItemRef ItemOID="IT.CE.CEOCCUR" Mandatory="No" OrderNumber="13"
                    Role="Record Qualifier"/>
                <ItemRef ItemOID="IT.CE.CESTAT" Mandatory="No" OrderNumber="14"
                    Role="Record Qualifier"/>
                <ItemRef ItemOID="IT.CE.CEREASND" Mandatory="No" OrderNumber="15"
                    Role="Record Qualifier"/>
                <ItemRef ItemOID="IT.CE.CEBODSYS" Mandatory="No" OrderNumber="16"
                    Role="Record Qualifier"/>
                <ItemRef ItemOID="IT.CE.CESEV" Mandatory="No" OrderNumber="17"
                    Role="Record Qualifier"/>
                <ItemRef ItemOID="IT.CE.CETOXGR" Mandatory="No" OrderNumber="18"
                    Role="Record Qualifier"/>
                <ItemRef ItemOID="IT.CE.TAETORD" Mandatory="No" OrderNumber="19" Role="Timing"/>
                <ItemRef ItemOID="IT.CE.EPOCH" Mandatory="No" OrderNumber="20" Role="Timing"/>
                <ItemRef ItemOID="IT.CE.CEDTC" Mandatory="No" OrderNumber="21" Role="Timing"/>
                <ItemRef ItemOID="IT.CE.CESTDTC" Mandatory="No" OrderNumber="22" Role="Timing"/>
                <ItemRef ItemOID="IT.CE.CEENDTC" Mandatory="No" OrderNumber="23" Role="Timing"/>
                <ItemRef ItemOID="IT.CE.CEDY" Mandatory="No" OrderNumber="24" Role="Timing"/>
                <ItemRef ItemOID="IT.CE.CESTDY" Mandatory="No" OrderNumber="25" Role="Timing"/>
                <ItemRef ItemOID="IT.CE.CEENDY" Mandatory="No" OrderNumber="26" Role="Timing"/>
                <ItemRef ItemOID="IT.CE.CESTRF" Mandatory="No" OrderNumber="27" Role="Timing"/>
                <ItemRef ItemOID="IT.CE.CEENRF" Mandatory="No" OrderNumber="28" Role="Timing"/>
                <ItemRef ItemOID="IT.CE.CESTRTPT" Mandatory="No" OrderNumber="29" Role="Timing"/>
                <ItemRef ItemOID="IT.CE.CESTTPT" Mandatory="No" OrderNumber="30" Role="Timing"/>
                <ItemRef ItemOID="IT.CE.CEENRTPT" Mandatory="No" OrderNumber="31" Role="Timing"/>
                <ItemRef ItemOID="IT.CE.CEENTPT" Mandatory="No" OrderNumber="32" Role="Timing"/>
                <def:Class Name="EVENTS"/>
            </ItemGroupDef>
            <ItemGroupDef Domain="DS" Name="DS" OID="IGD.DS" Purpose="Tabulation" Repeating="No"
                def:Structure="One record per disposition status or protocol milestone per subject">
                <Description>
                    <TranslatedText xml:lang="en">Disposition</TranslatedText>
                </Description>
                <ItemRef ItemOID="IT.DS.STUDYID" Mandatory="No" OrderNumber="1" Role="Identifier"/>
                <ItemRef ItemOID="IT.DS.DOMAIN" Mandatory="No" OrderNumber="2" Role="Identifier"/>
                <ItemRef ItemOID="IT.DS.USUBJID" Mandatory="No" OrderNumber="3" Role="Identifier"/>
                <ItemRef ItemOID="IT.DS.DSSEQ" Mandatory="No" OrderNumber="4" Role="Identifier"/>
                <ItemRef ItemOID="IT.DS.DSGRPID" Mandatory="No" OrderNumber="5" Role="Identifier"/>
                <ItemRef ItemOID="IT.DS.DSREFID" Mandatory="No" OrderNumber="6" Role="Identifier"/>
                <ItemRef ItemOID="IT.DS.DSSPID" Mandatory="No" OrderNumber="7" Role="Identifier"/>
                <ItemRef ItemOID="IT.DS.DSTERM" Mandatory="No" OrderNumber="8" Role="Topic"/>
                <ItemRef ItemOID="IT.DS.DSDECOD" Mandatory="No" OrderNumber="9"
                    Role="Synonym Qualifier"/>
                <ItemRef ItemOID="IT.DS.DSCAT" Mandatory="No" OrderNumber="10"
                    Role="Grouping Qualifier"/>
                <ItemRef ItemOID="IT.DS.DSSCAT" Mandatory="No" OrderNumber="11"
                    Role="Grouping Qualifier"/>
                <ItemRef ItemOID="IT.DS.EPOCH" Mandatory="No" OrderNumber="12" Role="Timing"/>
                <ItemRef ItemOID="IT.DS.DSDTC" Mandatory="No" OrderNumber="13" Role="Timing"/>
                <ItemRef ItemOID="IT.DS.DSSTDTC" Mandatory="No" OrderNumber="14" Role="Timing"/>
                <ItemRef ItemOID="IT.DS.DSDY" Mandatory="No" OrderNumber="15" Role="Timing"/>
                <ItemRef ItemOID="IT.DS.DSSTDY" Mandatory="No" OrderNumber="16" Role="Timing"/>
                <def:Class Name="EVENTS"/>
            </ItemGroupDef>
            <ItemGroupDef Domain="DV" Name="DV" OID="IGD.DV" Purpose="Tabulation" Repeating="No"
                def:Structure="One record per protocol deviation per subject">
                <Description>
                    <TranslatedText xml:lang="en">Protocol Deviations</TranslatedText>
                </Description>
                <ItemRef ItemOID="IT.DV.STUDYID" Mandatory="No" OrderNumber="1" Role="Identifier"/>
                <ItemRef ItemOID="IT.DV.DOMAIN" Mandatory="No" OrderNumber="2" Role="Identifier"/>
                <ItemRef ItemOID="IT.DV.USUBJID" Mandatory="No" OrderNumber="3" Role="Identifier"/>
                <ItemRef ItemOID="IT.DV.DVSEQ" Mandatory="No" OrderNumber="4" Role="Identifier"/>
                <ItemRef ItemOID="IT.DV.DVREFID" Mandatory="No" OrderNumber="5" Role="Identifier"/>
                <ItemRef ItemOID="IT.DV.DVSPID" Mandatory="No" OrderNumber="6" Role="Identifier"/>
                <ItemRef ItemOID="IT.DV.DVTERM" Mandatory="No" OrderNumber="7" Role="Topic"/>
                <ItemRef ItemOID="IT.DV.DVDECOD" Mandatory="No" OrderNumber="8"
                    Role="Synonym Qualifier"/>
                <ItemRef ItemOID="IT.DV.DVCAT" Mandatory="No" OrderNumber="9"
                    Role="Grouping Qualifier"/>
                <ItemRef ItemOID="IT.DV.DVSCAT" Mandatory="No" OrderNumber="10"
                    Role="Grouping Qualifier"/>
                <ItemRef ItemOID="IT.DV.TAETORD" Mandatory="No" OrderNumber="11" Role="Timing"/>
                <ItemRef ItemOID="IT.DV.EPOCH" Mandatory="No" OrderNumber="12" Role="Timing"/>
                <ItemRef ItemOID="IT.DV.DVSTDTC" Mandatory="No" OrderNumber="13" Role="Timing"/>
                <ItemRef ItemOID="IT.DV.DVENDTC" Mandatory="No" OrderNumber="14" Role="Timing"/>
                <ItemRef ItemOID="IT.DV.DVSTDY" Mandatory="No" OrderNumber="15" Role="Timing"/>
                <ItemRef ItemOID="IT.DV.DVENDY" Mandatory="No" OrderNumber="16" Role="Timing"/>
                <def:Class Name="EVENTS"/>
            </ItemGroupDef>
            <ItemGroupDef Domain="HO" Name="HO" OID="IGD.HO" Purpose="Tabulation" Repeating="No"
                def:Structure="One record per healthcare encounter per subject">
                <Description>
                    <TranslatedText xml:lang="en">Healthcare Encounters</TranslatedText>
                </Description>
                <ItemRef ItemOID="IT.HO.STUDYID" Mandatory="No" OrderNumber="1" Role="Identifier"/>
                <ItemRef ItemOID="IT.HO.DOMAIN" Mandatory="No" OrderNumber="2" Role="Identifier"/>
                <ItemRef ItemOID="IT.HO.USUBJID" Mandatory="No" OrderNumber="3" Role="Identifier"/>
                <ItemRef ItemOID="IT.HO.HOSEQ" Mandatory="No" OrderNumber="4" Role="Identifier"/>
                <ItemRef ItemOID="IT.HO.HOGRPID" Mandatory="No" OrderNumber="5" Role="Identifier"/>
                <ItemRef ItemOID="IT.HO.HOREFID" Mandatory="No" OrderNumber="6" Role="Identifier"/>
                <ItemRef ItemOID="IT.HO.HOSPID" Mandatory="No" OrderNumber="7" Role="Identifier"/>
                <ItemRef ItemOID="IT.HO.HOTERM" Mandatory="No" OrderNumber="8" Role="Topic"/>
                <ItemRef ItemOID="IT.HO.HODECOD" Mandatory="No" OrderNumber="9"
                    Role="Synonym Qualifier"/>
                <ItemRef ItemOID="IT.HO.HOCAT" Mandatory="No" OrderNumber="10"
                    Role="Grouping Qualifier"/>
                <ItemRef ItemOID="IT.HO.HOSCAT" Mandatory="No" OrderNumber="11"
                    Role="Grouping Qualifier"/>
                <ItemRef ItemOID="IT.HO.HOPRESP" Mandatory="No" OrderNumber="12"
                    Role="Variable Qualifier"/>
                <ItemRef ItemOID="IT.HO.HOOCCUR" Mandatory="No" OrderNumber="13"
                    Role="Record Qualifier"/>
                <ItemRef ItemOID="IT.HO.HOSTAT" Mandatory="No" OrderNumber="14"
                    Role="Record Qualifier"/>
                <ItemRef ItemOID="IT.HO.HOREASND" Mandatory="No" OrderNumber="15"
                    Role="Record Qualifier"/>
                <ItemRef ItemOID="IT.HO.TAETORD" Mandatory="No" OrderNumber="16" Role="Timing"/>
                <ItemRef ItemOID="IT.HO.EPOCH" Mandatory="No" OrderNumber="17" Role="Timing"/>
                <ItemRef ItemOID="IT.HO.HODTC" Mandatory="No" OrderNumber="18" Role="Timing"/>
                <ItemRef ItemOID="IT.HO.HOSTDTC" Mandatory="No" OrderNumber="19" Role="Timing"/>
                <ItemRef ItemOID="IT.HO.HOENDTC" Mandatory="No" OrderNumber="20" Role="Timing"/>
                <ItemRef ItemOID="IT.HO.HODY" Mandatory="No" OrderNumber="21" Role="Timing"/>
                <ItemRef ItemOID="IT.HO.HOSTDY" Mandatory="No" OrderNumber="22" Role="Timing"/>
                <ItemRef ItemOID="IT.HO.HOENDY" Mandatory="No" OrderNumber="23" Role="Timing"/>
                <ItemRef ItemOID="IT.HO.HODUR" Mandatory="No" OrderNumber="24" Role="Timing"/>
                <ItemRef ItemOID="IT.HO.HOSTRTPT" Mandatory="No" OrderNumber="25" Role="Timing"/>
                <ItemRef ItemOID="IT.HO.HOSTTPT" Mandatory="No" OrderNumber="26" Role="Timing"/>
                <ItemRef ItemOID="IT.HO.HOENRTPT" Mandatory="No" OrderNumber="27" Role="Timing"/>
                <ItemRef ItemOID="IT.HO.HOENTPT" Mandatory="No" OrderNumber="28" Role="Timing"/>
                <def:Class Name="EVENTS"/>
            </ItemGroupDef>
            <ItemGroupDef Domain="MH" Name="MH" OID="IGD.MH" Purpose="Tabulation" Repeating="No"
                def:Structure="One record per medical history event per subject">
                <Description>
                    <TranslatedText xml:lang="en">Medical History</TranslatedText>
                </Description>
                <ItemRef ItemOID="IT.MH.STUDYID" Mandatory="No" OrderNumber="1" Role="Identifier"/>
                <ItemRef ItemOID="IT.MH.DOMAIN" Mandatory="No" OrderNumber="2" Role="Identifier"/>
                <ItemRef ItemOID="IT.MH.USUBJID" Mandatory="No" OrderNumber="3" Role="Identifier"/>
                <ItemRef ItemOID="IT.MH.MHSEQ" Mandatory="No" OrderNumber="4" Role="Identifier"/>
                <ItemRef ItemOID="IT.MH.MHGRPID" Mandatory="No" OrderNumber="5" Role="Identifier"/>
                <ItemRef ItemOID="IT.MH.MHREFID" Mandatory="No" OrderNumber="6" Role="Identifier"/>
                <ItemRef ItemOID="IT.MH.MHSPID" Mandatory="No" OrderNumber="7" Role="Identifier"/>
                <ItemRef ItemOID="IT.MH.MHTERM" Mandatory="No" OrderNumber="8" Role="Topic"/>
                <ItemRef ItemOID="IT.MH.MHMODIFY" Mandatory="No" OrderNumber="9"
                    Role="Synonym Qualifier"/>
                <ItemRef ItemOID="IT.MH.MHDECOD" Mandatory="No" OrderNumber="10"
                    Role="Synonym Qualifier"/>
                <ItemRef ItemOID="IT.MH.MHEVDTYP" Mandatory="No" OrderNumber="11"
                    Role="Variable Qualifier"/>
                <ItemRef ItemOID="IT.MH.MHCAT" Mandatory="No" OrderNumber="12"
                    Role="Grouping Qualifier"/>
                <ItemRef ItemOID="IT.MH.MHSCAT" Mandatory="No" OrderNumber="13"
                    Role="Grouping Qualifier"/>
                <ItemRef ItemOID="IT.MH.MHPRESP" Mandatory="No" OrderNumber="14"
                    Role="Variable Qualifier"/>
                <ItemRef ItemOID="IT.MH.MHOCCUR" Mandatory="No" OrderNumber="15"
                    Role="Record Qualifier"/>
                <ItemRef ItemOID="IT.MH.MHSTAT" Mandatory="No" OrderNumber="16"
                    Role="Record Qualifier"/>
                <ItemRef ItemOID="IT.MH.MHREASND" Mandatory="No" OrderNumber="17"
                    Role="Record Qualifier"/>
                <ItemRef ItemOID="IT.MH.MHBODSYS" Mandatory="No" OrderNumber="18"
                    Role="Record Qualifier"/>
                <ItemRef ItemOID="IT.MH.TAETORD" Mandatory="No" OrderNumber="19" Role="Timing"/>
                <ItemRef ItemOID="IT.MH.EPOCH" Mandatory="No" OrderNumber="20" Role="Timing"/>
                <ItemRef ItemOID="IT.MH.MHDTC" Mandatory="No" OrderNumber="21" Role="Timing"/>
                <ItemRef ItemOID="IT.MH.MHSTDTC" Mandatory="No" OrderNumber="22" Role="Timing"/>
                <ItemRef ItemOID="IT.MH.MHENDTC" Mandatory="No" OrderNumber="23" Role="Timing"/>
                <ItemRef ItemOID="IT.MH.MHDY" Mandatory="No" OrderNumber="24" Role="Timing"/>
                <ItemRef ItemOID="IT.MH.MHENRF" Mandatory="No" OrderNumber="25" Role="Timing"/>
                <ItemRef ItemOID="IT.MH.MHENRTPT" Mandatory="No" OrderNumber="26" Role="Timing"/>
                <ItemRef ItemOID="IT.MH.MHENTPT" Mandatory="No" OrderNumber="27" Role="Timing"/>
                <def:Class Name="EVENTS"/>
            </ItemGroupDef>
            <ItemGroupDef Domain="BS" Name="BS" OID="IGD.BS" Purpose="Tabulation" Repeating="No"
                def:Structure="One record per measurement per biospecimen identifier per subject">
                <Description>
                    <TranslatedText xml:lang="en">Biospecimen Findings</TranslatedText>
                </Description>
                <ItemRef ItemOID="IT.BS.STUDYID" Mandatory="No" OrderNumber="1" Role="Identifier"/>
                <ItemRef ItemOID="IT.BS.DOMAIN" Mandatory="No" OrderNumber="2" Role="Identifier"/>
                <ItemRef ItemOID="IT.BS.USUBJID" Mandatory="No" OrderNumber="3" Role="Identifier"/>
                <ItemRef ItemOID="IT.BS.SPDEVID" Mandatory="No" OrderNumber="4" Role="Identifier"/>
                <ItemRef ItemOID="IT.BS.BSSEQ" Mandatory="No" OrderNumber="5" Role="Identifier"/>
                <ItemRef ItemOID="IT.BS.BSGRPID" Mandatory="No" OrderNumber="6" Role="Identifier"/>
                <ItemRef ItemOID="IT.BS.BSREFID" Mandatory="No" OrderNumber="7" Role="Identifier"/>
                <ItemRef ItemOID="IT.BS.BSSPID" Mandatory="No" OrderNumber="8" Role="Identifier"/>
                <ItemRef ItemOID="IT.BS.BSTESTCD" Mandatory="No" OrderNumber="9" Role="Topic"/>
                <ItemRef ItemOID="IT.BS.BSTEST" Mandatory="No" OrderNumber="10"
                    Role="Synonym Qualifier"/>
                <ItemRef ItemOID="IT.BS.BSCAT" Mandatory="No" OrderNumber="11"
                    Role="Grouping Qualifier"/>
                <ItemRef ItemOID="IT.BS.BSSCAT" Mandatory="No" OrderNumber="12"
                    Role="Grouping Qualifier"/>
                <ItemRef ItemOID="IT.BS.BSORRES" Mandatory="No" OrderNumber="13"
                    Role="Result Qualifier"/>
                <ItemRef ItemOID="IT.BS.BSORRESU" Mandatory="No" OrderNumber="14"
                    Role="Variable Qualifier"/>
                <ItemRef ItemOID="IT.BS.BSSTRESC" Mandatory="No" OrderNumber="15"
                    Role="Result Qualifier"/>
                <ItemRef ItemOID="IT.BS.BSSTRESN" Mandatory="No" OrderNumber="16"
                    Role="Result Qualifier"/>
                <ItemRef ItemOID="IT.BS.BSSTRESU" Mandatory="No" OrderNumber="17"
                    Role="Variable Qualifier"/>
                <ItemRef ItemOID="IT.BS.BSSTAT" Mandatory="No" OrderNumber="18"
                    Role="Record Qualifier"/>
                <ItemRef ItemOID="IT.BS.BSREASND" Mandatory="No" OrderNumber="19"
                    Role="Record Qualifier"/>
                <ItemRef ItemOID="IT.BS.BSNAM" Mandatory="No" OrderNumber="20"
                    Role="Record Qualifier"/>
                <ItemRef ItemOID="IT.BS.BSSPEC" Mandatory="No" OrderNumber="21"
                    Role="Record Qualifier"/>
                <ItemRef ItemOID="IT.BS.BSANTREG" Mandatory="No" OrderNumber="22"
                    Role="Variable Qualifier"/>
                <ItemRef ItemOID="IT.BS.BSSPCCND" Mandatory="No" OrderNumber="23"
                    Role="Record Qualifier"/>
                <ItemRef ItemOID="IT.BS.BSMETHOD" Mandatory="No" OrderNumber="24"
                    Role="Record Qualifier"/>
                <ItemRef ItemOID="IT.BS.BSBLFL" Mandatory="No" OrderNumber="25"
                    Role="Record Qualifier"/>
                <ItemRef ItemOID="IT.BS.VISITNUM" Mandatory="No" OrderNumber="26" Role="Timing"/>
                <ItemRef ItemOID="IT.BS.VISIT" Mandatory="No" OrderNumber="27" Role="Timing"/>
                <ItemRef ItemOID="IT.BS.VISITDY" Mandatory="No" OrderNumber="28" Role="Timing"/>
                <ItemRef ItemOID="IT.BS.BSDTC" Mandatory="No" OrderNumber="29" Role="Timing"/>
                <ItemRef ItemOID="IT.BS.BSDY" Mandatory="No" OrderNumber="30" Role="Timing"/>
                <ItemRef ItemOID="IT.BS.BSTPT" Mandatory="No" OrderNumber="31" Role="Timing"/>
                <ItemRef ItemOID="IT.BS.BSTPTNUM" Mandatory="No" OrderNumber="32" Role="Timing"/>
                <ItemRef ItemOID="IT.BS.BSELTM" Mandatory="No" OrderNumber="33" Role="Timing"/>
                <ItemRef ItemOID="IT.BS.BSTPTREF" Mandatory="No" OrderNumber="34" Role="Timing"/>
                <ItemRef ItemOID="IT.BS.BSRFTDTC" Mandatory="No" OrderNumber="35" Role="Timing"/>
                <def:Class Name="FINDINGS"/>
            </ItemGroupDef>
            <ItemGroupDef Domain="CP" Name="CP" OID="IGD.CP" Purpose="Tabulation" Repeating="No"
                def:Structure="One record per test per specimen per timepoint per visit per subject">
                <Description>
                    <TranslatedText xml:lang="en">Cell Phenotype Findings</TranslatedText>
                </Description>
                <ItemRef ItemOID="IT.CP.STUDYID" Mandatory="No" OrderNumber="1" Role="Identifier"/>
                <ItemRef ItemOID="IT.CP.DOMAIN" Mandatory="No" OrderNumber="2" Role="Identifier"/>
                <ItemRef ItemOID="IT.CP.USUBJID" Mandatory="No" OrderNumber="3" Role="Identifier"/>
                <ItemRef ItemOID="IT.CP.CPSEQ" Mandatory="No" OrderNumber="4" Role="Identifier"/>
                <ItemRef ItemOID="IT.CP.CPGRPID" Mandatory="No" OrderNumber="5" Role="Identifier"/>
                <ItemRef ItemOID="IT.CP.CPREFID" Mandatory="No" OrderNumber="6" Role="Identifier"/>
                <ItemRef ItemOID="IT.CP.CPSPID" Mandatory="No" OrderNumber="7" Role="Identifier"/>
                <ItemRef ItemOID="IT.CP.CPLNKID" Mandatory="No" OrderNumber="8" Role="Identifier"/>
                <ItemRef ItemOID="IT.CP.CPLNKGRP" Mandatory="No" OrderNumber="9" Role="Identifier"/>
                <ItemRef ItemOID="IT.CP.CPTESTCD" Mandatory="No" OrderNumber="10" Role="Topic"/>
                <ItemRef ItemOID="IT.CP.CPTEST" Mandatory="No" OrderNumber="11"
                    Role="Synonym Qualifier"/>
                <ItemRef ItemOID="IT.CP.CPSBMRKS" Mandatory="No" OrderNumber="12"
                    Role="Variable Qualifier"/>
                <ItemRef ItemOID="IT.CP.CPCELSTA" Mandatory="No" OrderNumber="13"
                    Role="Variable Qualifier"/>
                <ItemRef ItemOID="IT.CP.CPCSMRKS" Mandatory="No" OrderNumber="14"
                    Role="Variable Qualifier"/>
                <ItemRef ItemOID="IT.CP.CPTSTCND" Mandatory="No" OrderNumber="15"
                    Role="Variable Qualifier"/>
                <ItemRef ItemOID="IT.CP.CPCNDAGT" Mandatory="No" OrderNumber="16"
                    Role="Record Qualifier"/>
                <ItemRef ItemOID="IT.CP.CPBDAGNT" Mandatory="No" OrderNumber="17"
                    Role="Record Qualifier"/>
                <ItemRef ItemOID="IT.CP.CPABCLID" Mandatory="No" OrderNumber="18"
                    Role="Record Qualifier"/>
                <ItemRef ItemOID="IT.CP.CPMRKSTR" Mandatory="No" OrderNumber="19"
                    Role="Record Qualifier"/>
                <ItemRef ItemOID="IT.CP.CPGATE" Mandatory="No" OrderNumber="20"
                    Role="Record Qualifier"/>
                <ItemRef ItemOID="IT.CP.CPGATDEF" Mandatory="No" OrderNumber="21"
                    Role="Record Qualifier"/>
                <ItemRef ItemOID="IT.CP.CPSPTSTD" Mandatory="No" OrderNumber="22"
                    Role="Record Qualifier"/>
                <ItemRef ItemOID="IT.CP.CPCAT" Mandatory="No" OrderNumber="23"
                    Role="Grouping Qualifier"/>
                <ItemRef ItemOID="IT.CP.CPSCAT" Mandatory="No" OrderNumber="24"
                    Role="Grouping Qualifier"/>
                <ItemRef ItemOID="IT.CP.CPTSTPNL" Mandatory="No" OrderNumber="25"
                    Role="Grouping Qualifier"/>
                <ItemRef ItemOID="IT.CP.CPORRES" Mandatory="No" OrderNumber="26"
                    Role="Result Qualifier"/>
                <ItemRef ItemOID="IT.CP.CPORRESU" Mandatory="No" OrderNumber="27"
                    Role="Variable Qualifier"/>
                <ItemRef ItemOID="IT.CP.CPRESSCL" Mandatory="No" OrderNumber="28"
                    Role="Record Qualifier"/>
                <ItemRef ItemOID="IT.CP.CPRESTYP" Mandatory="No" OrderNumber="29"
                    Role="Record Qualifier"/>
                <ItemRef ItemOID="IT.CP.CPCOLSRT" Mandatory="No" OrderNumber="30"
                    Role="Record Qualifier"/>
                <ItemRef ItemOID="IT.CP.CPORNRLO" Mandatory="No" OrderNumber="31"
                    Role="Variable Qualifier"/>
                <ItemRef ItemOID="IT.CP.CPORNRHI" Mandatory="No" OrderNumber="32"
                    Role="Variable Qualifier"/>
                <ItemRef ItemOID="IT.CP.CPSTRESC" Mandatory="No" OrderNumber="33"
                    Role="Result Qualifier"/>
                <ItemRef ItemOID="IT.CP.CPSTRESN" Mandatory="No" OrderNumber="34"
                    Role="Result Qualifier"/>
                <ItemRef ItemOID="IT.CP.CPSTRESU" Mandatory="No" OrderNumber="35"
                    Role="Variable Qualifier"/>
                <ItemRef ItemOID="IT.CP.CPSTNRLO" Mandatory="No" OrderNumber="36"
                    Role="Variable Qualifier"/>
                <ItemRef ItemOID="IT.CP.CPSTNRHI" Mandatory="No" OrderNumber="37"
                    Role="Variable Qualifier"/>
                <ItemRef ItemOID="IT.CP.CPNRIND" Mandatory="No" OrderNumber="38"
                    Role="Variable Qualifier"/>
                <ItemRef ItemOID="IT.CP.CPSTAT" Mandatory="No" OrderNumber="39"
                    Role="Record Qualifier"/>
                <ItemRef ItemOID="IT.CP.CPREASND" Mandatory="No" OrderNumber="40"
                    Role="Record Qualifier"/>
                <ItemRef ItemOID="IT.CP.CPNAM" Mandatory="No" OrderNumber="41"
                    Role="Record Qualifier"/>
                <ItemRef ItemOID="IT.CP.CPLOINC" Mandatory="No" OrderNumber="42"
                    Role="Synonym Qualifier"/>
                <ItemRef ItemOID="IT.CP.CPSPEC" Mandatory="No" OrderNumber="43"
                    Role="Record Qualifier"/>
                <ItemRef ItemOID="IT.CP.CPSPCCND" Mandatory="No" OrderNumber="44"
                    Role="Record Qualifier"/>
                <ItemRef ItemOID="IT.CP.CPMETHOD" Mandatory="No" OrderNumber="45"
                    Role="Record Qualifier"/>
                <ItemRef ItemOID="IT.CP.CPANMETH" Mandatory="No" OrderNumber="46"
                    Role="Record Qualifier"/>
                <ItemRef ItemOID="IT.CP.CPLOBXFL" Mandatory="No" OrderNumber="47"
                    Role="Record Qualifier"/>
                <ItemRef ItemOID="IT.CP.CPBLFL" Mandatory="No" OrderNumber="48"
                    Role="Record Qualifier"/>
                <ItemRef ItemOID="IT.CP.CPDRVFL" Mandatory="No" OrderNumber="49"
                    Role="Record Qualifier"/>
                <ItemRef ItemOID="IT.CP.CPCLSIG" Mandatory="No" OrderNumber="50"
                    Role="Record Qualifier"/>
                <ItemRef ItemOID="IT.CP.VISITNUM" Mandatory="No" OrderNumber="51" Role="Timing"/>
                <ItemRef ItemOID="IT.CP.VISIT" Mandatory="No" OrderNumber="52" Role="Timing"/>
                <ItemRef ItemOID="IT.CP.VISITDY" Mandatory="No" OrderNumber="53" Role="Timing"/>
                <ItemRef ItemOID="IT.CP.TAETORD" Mandatory="No" OrderNumber="54" Role="Timing"/>
                <ItemRef ItemOID="IT.CP.EPOCH" Mandatory="No" OrderNumber="55" Role="Timing"/>
                <ItemRef ItemOID="IT.CP.CPDTC" Mandatory="No" OrderNumber="56" Role="Timing"/>
                <ItemRef ItemOID="IT.CP.CPDY" Mandatory="No" OrderNumber="57" Role="Timing"/>
                <ItemRef ItemOID="IT.CP.CPTPT" Mandatory="No" OrderNumber="58" Role="Timing"/>
                <ItemRef ItemOID="IT.CP.CPTPTNUM" Mandatory="No" OrderNumber="59" Role="Timing"/>
                <ItemRef ItemOID="IT.CP.CPELTM" Mandatory="No" OrderNumber="60" Role="Timing"/>
                <ItemRef ItemOID="IT.CP.CPTPTREF" Mandatory="No" OrderNumber="61" Role="Timing"/>
                <ItemRef ItemOID="IT.CP.CPRFTDTC" Mandatory="No" OrderNumber="62" Role="Timing"/>
                <def:Class Name="FINDINGS"/>
            </ItemGroupDef>
            <ItemGroupDef Domain="CV" Name="CV" OID="IGD.CV" Purpose="Tabulation" Repeating="No"
                def:Structure="One record per finding or result per time point per visit per subject">
                <Description>
                    <TranslatedText xml:lang="en">Cardiovascular System Findings</TranslatedText>
                </Description>
                <ItemRef ItemOID="IT.CV.STUDYID" Mandatory="No" OrderNumber="1" Role="Identifier"/>
                <ItemRef ItemOID="IT.CV.DOMAIN" Mandatory="No" OrderNumber="2" Role="Identifier"/>
                <ItemRef ItemOID="IT.CV.USUBJID" Mandatory="No" OrderNumber="3" Role="Identifier"/>
                <ItemRef ItemOID="IT.CV.CVSEQ" Mandatory="No" OrderNumber="4" Role="Identifier"/>
                <ItemRef ItemOID="IT.CV.CVGRPID" Mandatory="No" OrderNumber="5" Role="Identifier"/>
                <ItemRef ItemOID="IT.CV.CVREFID" Mandatory="No" OrderNumber="6" Role="Identifier"/>
                <ItemRef ItemOID="IT.CV.CVSPID" Mandatory="No" OrderNumber="7" Role="Identifier"/>
                <ItemRef ItemOID="IT.CV.CVLNKID" Mandatory="No" OrderNumber="8" Role="Identifier"/>
                <ItemRef ItemOID="IT.CV.CVLNKGRP" Mandatory="No" OrderNumber="9" Role="Identifier"/>
                <ItemRef ItemOID="IT.CV.CVTESTCD" Mandatory="No" OrderNumber="10" Role="Topic"/>
                <ItemRef ItemOID="IT.CV.CVTEST" Mandatory="No" OrderNumber="11"
                    Role="Synonym Qualifier"/>
                <ItemRef ItemOID="IT.CV.CVCAT" Mandatory="No" OrderNumber="12"
                    Role="Grouping Qualifier"/>
                <ItemRef ItemOID="IT.CV.CVSCAT" Mandatory="No" OrderNumber="13"
                    Role="Grouping Qualifier"/>
                <ItemRef ItemOID="IT.CV.CVPOS" Mandatory="No" OrderNumber="14"
                    Role="Record Qualifier"/>
                <ItemRef ItemOID="IT.CV.CVORRES" Mandatory="No" OrderNumber="15"
                    Role="Result Qualifier"/>
                <ItemRef ItemOID="IT.CV.CVORRESU" Mandatory="No" OrderNumber="16"
                    Role="Variable Qualifier"/>
                <ItemRef ItemOID="IT.CV.CVSTRESC" Mandatory="No" OrderNumber="17"
                    Role="Result Qualifier"/>
                <ItemRef ItemOID="IT.CV.CVSTRESN" Mandatory="No" OrderNumber="18"
                    Role="Result Qualifier"/>
                <ItemRef ItemOID="IT.CV.CVSTRESU" Mandatory="No" OrderNumber="19"
                    Role="Variable Qualifier"/>
                <ItemRef ItemOID="IT.CV.CVSTAT" Mandatory="No" OrderNumber="20"
                    Role="Record Qualifier"/>
                <ItemRef ItemOID="IT.CV.CVREASND" Mandatory="No" OrderNumber="21"
                    Role="Record Qualifier"/>
                <ItemRef ItemOID="IT.CV.CVLOC" Mandatory="No" OrderNumber="22"
                    Role="Record Qualifier"/>
                <ItemRef ItemOID="IT.CV.CVLAT" Mandatory="No" OrderNumber="23"
                    Role="Variable Qualifier"/>
                <ItemRef ItemOID="IT.CV.CVDIR" Mandatory="No" OrderNumber="24"
                    Role="Variable Qualifier"/>
                <ItemRef ItemOID="IT.CV.CVMETHOD" Mandatory="No" OrderNumber="25"
                    Role="Record Qualifier"/>
                <ItemRef ItemOID="IT.CV.CVLOBXFL" Mandatory="No" OrderNumber="26"
                    Role="Record Qualifier"/>
                <ItemRef ItemOID="IT.CV.CVBLFL" Mandatory="No" OrderNumber="27"
                    Role="Record Qualifier"/>
                <ItemRef ItemOID="IT.CV.CVDRVFL" Mandatory="No" OrderNumber="28"
                    Role="Record Qualifier"/>
                <ItemRef ItemOID="IT.CV.CVEVAL" Mandatory="No" OrderNumber="29"
                    Role="Record Qualifier"/>
                <ItemRef ItemOID="IT.CV.CVEVALID" Mandatory="No" OrderNumber="30"
                    Role="Variable Qualifier"/>
                <ItemRef ItemOID="IT.CV.VISITNUM" Mandatory="No" OrderNumber="31" Role="Timing"/>
                <ItemRef ItemOID="IT.CV.VISIT" Mandatory="No" OrderNumber="32" Role="Timing"/>
                <ItemRef ItemOID="IT.CV.VISITDY" Mandatory="No" OrderNumber="33" Role="Timing"/>
                <ItemRef ItemOID="IT.CV.TAETORD" Mandatory="No" OrderNumber="34" Role="Timing"/>
                <ItemRef ItemOID="IT.CV.EPOCH" Mandatory="No" OrderNumber="35" Role="Timing"/>
                <ItemRef ItemOID="IT.CV.CVDTC" Mandatory="No" OrderNumber="36" Role="Timing"/>
                <ItemRef ItemOID="IT.CV.CVDY" Mandatory="No" OrderNumber="37" Role="Timing"/>
                <ItemRef ItemOID="IT.CV.CVTPT" Mandatory="No" OrderNumber="38" Role="Timing"/>
                <ItemRef ItemOID="IT.CV.CVTPTNUM" Mandatory="No" OrderNumber="39" Role="Timing"/>
                <ItemRef ItemOID="IT.CV.CVELTM" Mandatory="No" OrderNumber="40" Role="Timing"/>
                <ItemRef ItemOID="IT.CV.CVTPTREF" Mandatory="No" OrderNumber="41" Role="Timing"/>
                <ItemRef ItemOID="IT.CV.CVRFTDTC" Mandatory="No" OrderNumber="42" Role="Timing"/>
                <def:Class Name="FINDINGS"/>
            </ItemGroupDef>
            <ItemGroupDef Domain="DA" Name="DA" OID="IGD.DA" Purpose="Tabulation" Repeating="No"
                def:Structure="One record per product accountability finding per subject">
                <Description>
                    <TranslatedText xml:lang="en">Product Accountability</TranslatedText>
                </Description>
                <ItemRef ItemOID="IT.DA.STUDYID" Mandatory="No" OrderNumber="1" Role="Identifier"/>
                <ItemRef ItemOID="IT.DA.DOMAIN" Mandatory="No" OrderNumber="2" Role="Identifier"/>
                <ItemRef ItemOID="IT.DA.USUBJID" Mandatory="No" OrderNumber="3" Role="Identifier"/>
                <ItemRef ItemOID="IT.DA.DASEQ" Mandatory="No" OrderNumber="4" Role="Identifier"/>
                <ItemRef ItemOID="IT.DA.DAGRPID" Mandatory="No" OrderNumber="5" Role="Identifier"/>
                <ItemRef ItemOID="IT.DA.DAREFID" Mandatory="No" OrderNumber="6" Role="Identifier"/>
                <ItemRef ItemOID="IT.DA.DASPID" Mandatory="No" OrderNumber="7" Role="Identifier"/>
                <ItemRef ItemOID="IT.DA.DALNKID" Mandatory="No" OrderNumber="8" Role="Identifier"/>
                <ItemRef ItemOID="IT.DA.DALNKGRP" Mandatory="No" OrderNumber="9" Role="Identifier"/>
                <ItemRef ItemOID="IT.DA.DATESTCD" Mandatory="No" OrderNumber="10" Role="Topic"/>
                <ItemRef ItemOID="IT.DA.DATEST" Mandatory="No" OrderNumber="11"
                    Role="Synonym Qualifier"/>
                <ItemRef ItemOID="IT.DA.DACAT" Mandatory="No" OrderNumber="12"
                    Role="Grouping Qualifier"/>
                <ItemRef ItemOID="IT.DA.DASCAT" Mandatory="No" OrderNumber="13"
                    Role="Grouping Qualifier"/>
                <ItemRef ItemOID="IT.DA.DAORRES" Mandatory="No" OrderNumber="14"
                    Role="Result Qualifier"/>
                <ItemRef ItemOID="IT.DA.DAORRESU" Mandatory="No" OrderNumber="15"
                    Role="Variable Qualifier"/>
                <ItemRef ItemOID="IT.DA.DASTRESC" Mandatory="No" OrderNumber="16"
                    Role="Result Qualifier"/>
                <ItemRef ItemOID="IT.DA.DASTRESN" Mandatory="No" OrderNumber="17"
                    Role="Result Qualifier"/>
                <ItemRef ItemOID="IT.DA.DASTRESU" Mandatory="No" OrderNumber="18"
                    Role="Variable Qualifier"/>
                <ItemRef ItemOID="IT.DA.DASTAT" Mandatory="No" OrderNumber="19"
                    Role="Record Qualifier"/>
                <ItemRef ItemOID="IT.DA.DAREASND" Mandatory="No" OrderNumber="20"
                    Role="Record Qualifier"/>
                <ItemRef ItemOID="IT.DA.VISITNUM" Mandatory="No" OrderNumber="21" Role="Timing"/>
                <ItemRef ItemOID="IT.DA.VISIT" Mandatory="No" OrderNumber="22" Role="Timing"/>
                <ItemRef ItemOID="IT.DA.VISITDY" Mandatory="No" OrderNumber="23" Role="Timing"/>
                <ItemRef ItemOID="IT.DA.TAETORD" Mandatory="No" OrderNumber="24" Role="Timing"/>
                <ItemRef ItemOID="IT.DA.EPOCH" Mandatory="No" OrderNumber="25" Role="Timing"/>
                <ItemRef ItemOID="IT.DA.DADTC" Mandatory="No" OrderNumber="26" Role="Timing"/>
                <ItemRef ItemOID="IT.DA.DADY" Mandatory="No" OrderNumber="27" Role="Timing"/>
                <def:Class Name="FINDINGS"/>
            </ItemGroupDef>
            <ItemGroupDef Domain="DD" Name="DD" OID="IGD.DD" Purpose="Tabulation" Repeating="No"
                def:Structure="One record per finding per subject">
                <Description>
                    <TranslatedText xml:lang="en">Death Details</TranslatedText>
                </Description>
                <ItemRef ItemOID="IT.DD.STUDYID" Mandatory="No" OrderNumber="1" Role="Identifier"/>
                <ItemRef ItemOID="IT.DD.DOMAIN" Mandatory="No" OrderNumber="2" Role="Identifier"/>
                <ItemRef ItemOID="IT.DD.USUBJID" Mandatory="No" OrderNumber="3" Role="Identifier"/>
                <ItemRef ItemOID="IT.DD.DDSEQ" Mandatory="No" OrderNumber="4" Role="Identifier"/>
                <ItemRef ItemOID="IT.DD.DDTESTCD" Mandatory="No" OrderNumber="5" Role="Topic"/>
                <ItemRef ItemOID="IT.DD.DDTEST" Mandatory="No" OrderNumber="6"
                    Role="Synonym Qualifier"/>
                <ItemRef ItemOID="IT.DD.DDORRES" Mandatory="No" OrderNumber="7"
                    Role="Result Qualifier"/>
                <ItemRef ItemOID="IT.DD.DDSTRESC" Mandatory="No" OrderNumber="8"
                    Role="Result Qualifier"/>
                <ItemRef ItemOID="IT.DD.DDRESCAT" Mandatory="No" OrderNumber="9"
                    Role="Variable Qualifier"/>
                <ItemRef ItemOID="IT.DD.DDEVAL" Mandatory="No" OrderNumber="10"
                    Role="Record Qualifier"/>
                <ItemRef ItemOID="IT.DD.DDDTC" Mandatory="No" OrderNumber="11" Role="Timing"/>
                <ItemRef ItemOID="IT.DD.DDDY" Mandatory="No" OrderNumber="12" Role="Timing"/>
                <def:Class Name="FINDINGS"/>
            </ItemGroupDef>
            <ItemGroupDef Domain="EG" Name="EG" OID="IGD.EG" Purpose="Tabulation" Repeating="No"
                def:Structure="One record per ECG observation per replicate per time point or one record per ECG observation per beat per visit per subject">
                <Description>
                    <TranslatedText xml:lang="en">ECG Test Results</TranslatedText>
                </Description>
                <ItemRef ItemOID="IT.EG.STUDYID" Mandatory="No" OrderNumber="1" Role="Identifier"/>
                <ItemRef ItemOID="IT.EG.DOMAIN" Mandatory="No" OrderNumber="2" Role="Identifier"/>
                <ItemRef ItemOID="IT.EG.USUBJID" Mandatory="No" OrderNumber="3" Role="Identifier"/>
                <ItemRef ItemOID="IT.EG.SPDEVID" Mandatory="No" OrderNumber="4" Role="Identifier"/>
                <ItemRef ItemOID="IT.EG.EGSEQ" Mandatory="No" OrderNumber="5" Role="Identifier"/>
                <ItemRef ItemOID="IT.EG.EGGRPID" Mandatory="No" OrderNumber="6" Role="Identifier"/>
                <ItemRef ItemOID="IT.EG.EGREFID" Mandatory="No" OrderNumber="7" Role="Identifier"/>
                <ItemRef ItemOID="IT.EG.EGSPID" Mandatory="No" OrderNumber="8" Role="Identifier"/>
                <ItemRef ItemOID="IT.EG.EGBEATNO" Mandatory="No" OrderNumber="9" Role="Identifier"/>
                <ItemRef ItemOID="IT.EG.EGTESTCD" Mandatory="No" OrderNumber="10" Role="Topic"/>
                <ItemRef ItemOID="IT.EG.EGTEST" Mandatory="No" OrderNumber="11"
                    Role="Synonym Qualifier"/>
                <ItemRef ItemOID="IT.EG.EGCAT" Mandatory="No" OrderNumber="12"
                    Role="Grouping Qualifier"/>
                <ItemRef ItemOID="IT.EG.EGSCAT" Mandatory="No" OrderNumber="13"
                    Role="Grouping Qualifier"/>
                <ItemRef ItemOID="IT.EG.EGPOS" Mandatory="No" OrderNumber="14"
                    Role="Record Qualifier"/>
                <ItemRef ItemOID="IT.EG.EGORRES" Mandatory="No" OrderNumber="15"
                    Role="Result Qualifier"/>
                <ItemRef ItemOID="IT.EG.EGORRESU" Mandatory="No" OrderNumber="16"
                    Role="Variable Qualifier"/>
                <ItemRef ItemOID="IT.EG.EGSTRESC" Mandatory="No" OrderNumber="17"
                    Role="Result Qualifier"/>
                <ItemRef ItemOID="IT.EG.EGSTRESN" Mandatory="No" OrderNumber="18"
                    Role="Result Qualifier"/>
                <ItemRef ItemOID="IT.EG.EGSTRESU" Mandatory="No" OrderNumber="19"
                    Role="Variable Qualifier"/>
                <ItemRef ItemOID="IT.EG.EGSTAT" Mandatory="No" OrderNumber="20"
                    Role="Record Qualifier"/>
                <ItemRef ItemOID="IT.EG.EGREASND" Mandatory="No" OrderNumber="21"
                    Role="Record Qualifier"/>
                <ItemRef ItemOID="IT.EG.EGXFN" Mandatory="No" OrderNumber="22"
                    Role="Record Qualifier"/>
                <ItemRef ItemOID="IT.EG.EGNAM" Mandatory="No" OrderNumber="23"
                    Role="Record Qualifier"/>
                <ItemRef ItemOID="IT.EG.EGMETHOD" Mandatory="No" OrderNumber="24"
                    Role="Record Qualifier"/>
                <ItemRef ItemOID="IT.EG.EGLEAD" Mandatory="No" OrderNumber="25"
                    Role="Record Qualifier"/>
                <ItemRef ItemOID="IT.EG.EGLOBXFL" Mandatory="No" OrderNumber="26"
                    Role="Record Qualifier"/>
                <ItemRef ItemOID="IT.EG.EGBLFL" Mandatory="No" OrderNumber="27"
                    Role="Record Qualifier"/>
                <ItemRef ItemOID="IT.EG.EGDRVFL" Mandatory="No" OrderNumber="28"
                    Role="Record Qualifier"/>
                <ItemRef ItemOID="IT.EG.EGEVAL" Mandatory="No" OrderNumber="29"
                    Role="Record Qualifier"/>
                <ItemRef ItemOID="IT.EG.EGEVALID" Mandatory="No" OrderNumber="30"
                    Role="Variable Qualifier"/>
                <ItemRef ItemOID="IT.EG.EGCLSIG" Mandatory="No" OrderNumber="31"
                    Role="Record Qualifier"/>
                <ItemRef ItemOID="IT.EG.EGREPNUM" Mandatory="No" OrderNumber="32"
                    Role="Record Qualifier"/>
                <ItemRef ItemOID="IT.EG.VISITNUM" Mandatory="No" OrderNumber="33" Role="Timing"/>
                <ItemRef ItemOID="IT.EG.VISIT" Mandatory="No" OrderNumber="34" Role="Timing"/>
                <ItemRef ItemOID="IT.EG.VISITDY" Mandatory="No" OrderNumber="35" Role="Timing"/>
                <ItemRef ItemOID="IT.EG.TAETORD" Mandatory="No" OrderNumber="36" Role="Timing"/>
                <ItemRef ItemOID="IT.EG.EPOCH" Mandatory="No" OrderNumber="37" Role="Timing"/>
                <ItemRef ItemOID="IT.EG.EGDTC" Mandatory="No" OrderNumber="38" Role="Timing"/>
                <ItemRef ItemOID="IT.EG.EGDY" Mandatory="No" OrderNumber="39" Role="Timing"/>
                <ItemRef ItemOID="IT.EG.EGTPT" Mandatory="No" OrderNumber="40" Role="Timing"/>
                <ItemRef ItemOID="IT.EG.EGTPTNUM" Mandatory="No" OrderNumber="41" Role="Timing"/>
                <ItemRef ItemOID="IT.EG.EGELTM" Mandatory="No" OrderNumber="42" Role="Timing"/>
                <ItemRef ItemOID="IT.EG.EGTPTREF" Mandatory="No" OrderNumber="43" Role="Timing"/>
                <ItemRef ItemOID="IT.EG.EGRFTDTC" Mandatory="No" OrderNumber="44" Role="Timing"/>
                <def:Class Name="FINDINGS"/>
            </ItemGroupDef>
            <ItemGroupDef Domain="FT" Name="FT" OID="IGD.FT" Purpose="Tabulation" Repeating="No"
                def:Structure="One record per Functional Test finding per time point per visit per subject">
                <Description>
                    <TranslatedText xml:lang="en">Functional Tests</TranslatedText>
                </Description>
                <ItemRef ItemOID="IT.FT.STUDYID" Mandatory="No" OrderNumber="1" Role="Identifier"/>
                <ItemRef ItemOID="IT.FT.DOMAIN" Mandatory="No" OrderNumber="2" Role="Identifier"/>
                <ItemRef ItemOID="IT.FT.USUBJID" Mandatory="No" OrderNumber="3" Role="Identifier"/>
                <ItemRef ItemOID="IT.FT.FTSEQ" Mandatory="No" OrderNumber="4" Role="Identifier"/>
                <ItemRef ItemOID="IT.FT.FTGRPID" Mandatory="No" OrderNumber="5" Role="Identifier"/>
                <ItemRef ItemOID="IT.FT.FTREFID" Mandatory="No" OrderNumber="6" Role="Identifier"/>
                <ItemRef ItemOID="IT.FT.FTSPID" Mandatory="No" OrderNumber="7" Role="Identifier"/>
                <ItemRef ItemOID="IT.FT.FTTESTCD" Mandatory="No" OrderNumber="8" Role="Topic"/>
                <ItemRef ItemOID="IT.FT.FTTEST" Mandatory="No" OrderNumber="9"
                    Role="Synonym Qualifier"/>
                <ItemRef ItemOID="IT.FT.FTCAT" Mandatory="No" OrderNumber="10"
                    Role="Grouping Qualifier"/>
                <ItemRef ItemOID="IT.FT.FTSCAT" Mandatory="No" OrderNumber="11"
                    Role="Grouping Qualifier"/>
                <ItemRef ItemOID="IT.FT.FTPOS" Mandatory="No" OrderNumber="12"
                    Role="Record Qualifier"/>
                <ItemRef ItemOID="IT.FT.FTORRES" Mandatory="No" OrderNumber="13"
                    Role="Result Qualifier"/>
                <ItemRef ItemOID="IT.FT.FTORRESU" Mandatory="No" OrderNumber="14"
                    Role="Variable Qualifier"/>
                <ItemRef ItemOID="IT.FT.FTSTRESC" Mandatory="No" OrderNumber="15"
                    Role="Result Qualifier"/>
                <ItemRef ItemOID="IT.FT.FTSTRESN" Mandatory="No" OrderNumber="16"
                    Role="Result Qualifier"/>
                <ItemRef ItemOID="IT.FT.FTSTRESU" Mandatory="No" OrderNumber="17"
                    Role="Variable Qualifier"/>
                <ItemRef ItemOID="IT.FT.FTSTAT" Mandatory="No" OrderNumber="18"
                    Role="Record Qualifier"/>
                <ItemRef ItemOID="IT.FT.FTREASND" Mandatory="No" OrderNumber="19"
                    Role="Record Qualifier"/>
                <ItemRef ItemOID="IT.FT.FTXFN" Mandatory="No" OrderNumber="20"
                    Role="Record Qualifier"/>
                <ItemRef ItemOID="IT.FT.FTNAM" Mandatory="No" OrderNumber="21"
                    Role="Record Qualifier"/>
                <ItemRef ItemOID="IT.FT.FTMETHOD" Mandatory="No" OrderNumber="22"
                    Role="Record Qualifier"/>
                <ItemRef ItemOID="IT.FT.FTLOBXFL" Mandatory="No" OrderNumber="23"
                    Role="Record Qualifier"/>
                <ItemRef ItemOID="IT.FT.FTBLFL" Mandatory="No" OrderNumber="24"
                    Role="Record Qualifier"/>
                <ItemRef ItemOID="IT.FT.FTDRVFL" Mandatory="No" OrderNumber="25"
                    Role="Record Qualifier"/>
                <ItemRef ItemOID="IT.FT.FTREPNUM" Mandatory="No" OrderNumber="26"
                    Role="Record Qualifier"/>
                <ItemRef ItemOID="IT.FT.VISITNUM" Mandatory="No" OrderNumber="27" Role="Timing"/>
                <ItemRef ItemOID="IT.FT.VISIT" Mandatory="No" OrderNumber="28" Role="Timing"/>
                <ItemRef ItemOID="IT.FT.VISITDY" Mandatory="No" OrderNumber="29" Role="Timing"/>
                <ItemRef ItemOID="IT.FT.TAETORD" Mandatory="No" OrderNumber="30" Role="Timing"/>
                <ItemRef ItemOID="IT.FT.EPOCH" Mandatory="No" OrderNumber="31" Role="Timing"/>
                <ItemRef ItemOID="IT.FT.FTDTC" Mandatory="No" OrderNumber="32" Role="Timing"/>
                <ItemRef ItemOID="IT.FT.FTDY" Mandatory="No" OrderNumber="33" Role="Timing"/>
                <ItemRef ItemOID="IT.FT.FTTPT" Mandatory="No" OrderNumber="34" Role="Timing"/>
                <ItemRef ItemOID="IT.FT.FTTPTNUM" Mandatory="No" OrderNumber="35" Role="Timing"/>
                <ItemRef ItemOID="IT.FT.FTELTM" Mandatory="No" OrderNumber="36" Role="Timing"/>
                <ItemRef ItemOID="IT.FT.FTTPTREF" Mandatory="No" OrderNumber="37" Role="Timing"/>
                <ItemRef ItemOID="IT.FT.FTRFTDTC" Mandatory="No" OrderNumber="38" Role="Timing"/>
                <def:Class Name="FINDINGS"/>
            </ItemGroupDef>
            <ItemGroupDef Domain="GF" Name="GF" OID="IGD.GF" Purpose="Tabulation" Repeating="No"
                def:Structure="One record per finding per observation per biospecimen per subject">
                <Description>
                    <TranslatedText xml:lang="en">Genomics Findings</TranslatedText>
                </Description>
                <ItemRef ItemOID="IT.GF.STUDYID" Mandatory="No" OrderNumber="1" Role="Identifier"/>
                <ItemRef ItemOID="IT.GF.DOMAIN" Mandatory="No" OrderNumber="2" Role="Identifier"/>
                <ItemRef ItemOID="IT.GF.USUBJID" Mandatory="No" OrderNumber="3" Role="Identifier"/>
                <ItemRef ItemOID="IT.GF.SPDEVID" Mandatory="No" OrderNumber="4" Role="Identifier"/>
                <ItemRef ItemOID="IT.GF.NHOID" Mandatory="No" OrderNumber="5" Role="Identifier"/>
                <ItemRef ItemOID="IT.GF.GFSEQ" Mandatory="No" OrderNumber="6" Role="Identifier"/>
                <ItemRef ItemOID="IT.GF.GFGRPID" Mandatory="No" OrderNumber="7" Role="Identifier"/>
                <ItemRef ItemOID="IT.GF.GFREFID" Mandatory="No" OrderNumber="8" Role="Identifier"/>
                <ItemRef ItemOID="IT.GF.GFSPID" Mandatory="No" OrderNumber="9" Role="Identifier"/>
                <ItemRef ItemOID="IT.GF.GFLNKID" Mandatory="No" OrderNumber="10" Role="Identifier"/>
                <ItemRef ItemOID="IT.GF.GFLNKGRP" Mandatory="No" OrderNumber="11" Role="Identifier"/>
                <ItemRef ItemOID="IT.GF.GFTESTCD" Mandatory="No" OrderNumber="12" Role="Topic"/>
                <ItemRef ItemOID="IT.GF.GFTEST" Mandatory="No" OrderNumber="13"
                    Role="Synonym Qualifier"/>
                <ItemRef ItemOID="IT.GF.GFTSTDTL" Mandatory="No" OrderNumber="14"
                    Role="Variable Qualifier"/>
                <ItemRef ItemOID="IT.GF.GFCAT" Mandatory="No" OrderNumber="15"
                    Role="Grouping Qualifier"/>
                <ItemRef ItemOID="IT.GF.GFSCAT" Mandatory="No" OrderNumber="16"
                    Role="Grouping Qualifier"/>
                <ItemRef ItemOID="IT.GF.GFORRES" Mandatory="No" OrderNumber="17"
                    Role="Result Qualifier"/>
                <ItemRef ItemOID="IT.GF.GFORRESU" Mandatory="No" OrderNumber="18"
                    Role="Variable Qualifier"/>
                <ItemRef ItemOID="IT.GF.GFORREF" Mandatory="No" OrderNumber="19"
                    Role="Variable Qualifier"/>
                <ItemRef ItemOID="IT.GF.GFSTRESC" Mandatory="No" OrderNumber="20"
                    Role="Result Qualifier"/>
                <ItemRef ItemOID="IT.GF.GFSTRESN" Mandatory="No" OrderNumber="21"
                    Role="Result Qualifier"/>
                <ItemRef ItemOID="IT.GF.GFSTRESU" Mandatory="No" OrderNumber="22"
                    Role="Variable Qualifier"/>
                <ItemRef ItemOID="IT.GF.GFSTREFC" Mandatory="No" OrderNumber="23"
                    Role="Variable Qualifier"/>
                <ItemRef ItemOID="IT.GF.GFSTREFN" Mandatory="No" OrderNumber="24"
                    Role="Variable Qualifier"/>
                <ItemRef ItemOID="IT.GF.GFRESCAT" Mandatory="No" OrderNumber="25"
                    Role="Variable Qualifier"/>
                <ItemRef ItemOID="IT.GF.GFINHERT" Mandatory="No" OrderNumber="26"
                    Role="Variable Qualifier"/>
                <ItemRef ItemOID="IT.GF.GFGENREF" Mandatory="No" OrderNumber="27"
                    Role="Variable Qualifier"/>
                <ItemRef ItemOID="IT.GF.GFCHROM" Mandatory="No" OrderNumber="28"
                    Role="Variable Qualifier"/>
                <ItemRef ItemOID="IT.GF.GFSYM" Mandatory="No" OrderNumber="29"
                    Role="Variable Qualifier"/>
                <ItemRef ItemOID="IT.GF.GFSYMTYP" Mandatory="No" OrderNumber="30"
                    Role="Variable Qualifier"/>
                <ItemRef ItemOID="IT.GF.GFGENLOC" Mandatory="No" OrderNumber="31"
                    Role="Variable Qualifier"/>
                <ItemRef ItemOID="IT.GF.GFGENSR" Mandatory="No" OrderNumber="32"
                    Role="Variable Qualifier"/>
                <ItemRef ItemOID="IT.GF.GFSEQID" Mandatory="No" OrderNumber="33"
                    Role="Variable Qualifier"/>
                <ItemRef ItemOID="IT.GF.GFPVRID" Mandatory="No" OrderNumber="34"
                    Role="Variable Qualifier"/>
                <ItemRef ItemOID="IT.GF.GFCOPYID" Mandatory="No" OrderNumber="35"
                    Role="Variable Qualifier"/>
                <ItemRef ItemOID="IT.GF.GFSTAT" Mandatory="No" OrderNumber="36"
                    Role="Record Qualifier"/>
                <ItemRef ItemOID="IT.GF.GFREASND" Mandatory="No" OrderNumber="37"
                    Role="Record Qualifier"/>
                <ItemRef ItemOID="IT.GF.GFXFN" Mandatory="No" OrderNumber="38"
                    Role="Record Qualifier"/>
                <ItemRef ItemOID="IT.GF.GFNAM" Mandatory="No" OrderNumber="39"
                    Role="Record Qualifier"/>
                <ItemRef ItemOID="IT.GF.GFSPEC" Mandatory="No" OrderNumber="40"
                    Role="Record Qualifier"/>
                <ItemRef ItemOID="IT.GF.GFMETHOD" Mandatory="No" OrderNumber="41"
                    Role="Record Qualifier"/>
                <ItemRef ItemOID="IT.GF.GFRUNID" Mandatory="No" OrderNumber="42"
                    Role="Record Qualifier"/>
                <ItemRef ItemOID="IT.GF.GFANMETH" Mandatory="No" OrderNumber="43"
                    Role="Record Qualifier"/>
                <ItemRef ItemOID="IT.GF.GFBLFL" Mandatory="No" OrderNumber="44"
                    Role="Record Qualifier"/>
                <ItemRef ItemOID="IT.GF.GFDRVFL" Mandatory="No" OrderNumber="45"
                    Role="Record Qualifier"/>
                <ItemRef ItemOID="IT.GF.GFLLOQ" Mandatory="No" OrderNumber="46"
                    Role="Variable Qualifier"/>
                <ItemRef ItemOID="IT.GF.GFREPNUM" Mandatory="No" OrderNumber="47"
                    Role="Record Qualifier"/>
                <ItemRef ItemOID="IT.GF.VISITNUM" Mandatory="No" OrderNumber="48" Role="Timing"/>
                <ItemRef ItemOID="IT.GF.VISIT" Mandatory="No" OrderNumber="49" Role="Timing"/>
                <ItemRef ItemOID="IT.GF.VISITDY" Mandatory="No" OrderNumber="50" Role="Timing"/>
                <ItemRef ItemOID="IT.GF.GFDTC" Mandatory="No" OrderNumber="51" Role="Timing"/>
                <ItemRef ItemOID="IT.GF.GFDY" Mandatory="No" OrderNumber="52" Role="Timing"/>
                <ItemRef ItemOID="IT.GF.GFTPT" Mandatory="No" OrderNumber="53" Role="Timing"/>
                <ItemRef ItemOID="IT.GF.GFTPTNUM" Mandatory="No" OrderNumber="54" Role="Timing"/>
                <ItemRef ItemOID="IT.GF.GFELTM" Mandatory="No" OrderNumber="55" Role="Timing"/>
                <ItemRef ItemOID="IT.GF.GFTPTREF" Mandatory="No" OrderNumber="56" Role="Timing"/>
                <ItemRef ItemOID="IT.GF.GFRFTDTC" Mandatory="No" OrderNumber="57" Role="Timing"/>
                <def:Class Name="FINDINGS"/>
            </ItemGroupDef>
            <ItemGroupDef Domain="IE" Name="IE" OID="IGD.IE" Purpose="Tabulation" Repeating="No"
                def:Structure="One record per inclusion/exclusion criterion not met per subject">
                <Description>
                    <TranslatedText xml:lang="en">Inclusion/Exclusion Criteria Not
                        Met</TranslatedText>
                </Description>
                <ItemRef ItemOID="IT.IE.STUDYID" Mandatory="No" OrderNumber="1" Role="Identifier"/>
                <ItemRef ItemOID="IT.IE.DOMAIN" Mandatory="No" OrderNumber="2" Role="Identifier"/>
                <ItemRef ItemOID="IT.IE.USUBJID" Mandatory="No" OrderNumber="3" Role="Identifier"/>
                <ItemRef ItemOID="IT.IE.IESEQ" Mandatory="No" OrderNumber="4" Role="Identifier"/>
                <ItemRef ItemOID="IT.IE.IESPID" Mandatory="No" OrderNumber="5" Role="Identifier"/>
                <ItemRef ItemOID="IT.IE.IETESTCD" Mandatory="No" OrderNumber="6" Role="Topic"/>
                <ItemRef ItemOID="IT.IE.IETEST" Mandatory="No" OrderNumber="7"
                    Role="Synonym Qualifier"/>
                <ItemRef ItemOID="IT.IE.IECAT" Mandatory="No" OrderNumber="8"
                    Role="Grouping Qualifier"/>
                <ItemRef ItemOID="IT.IE.IESCAT" Mandatory="No" OrderNumber="9"
                    Role="Grouping Qualifier"/>
                <ItemRef ItemOID="IT.IE.IEORRES" Mandatory="No" OrderNumber="10"
                    Role="Result Qualifier"/>
                <ItemRef ItemOID="IT.IE.IESTRESC" Mandatory="No" OrderNumber="11"
                    Role="Result Qualifier"/>
                <ItemRef ItemOID="IT.IE.VISITNUM" Mandatory="No" OrderNumber="12" Role="Timing"/>
                <ItemRef ItemOID="IT.IE.VISIT" Mandatory="No" OrderNumber="13" Role="Timing"/>
                <ItemRef ItemOID="IT.IE.VISITDY" Mandatory="No" OrderNumber="14" Role="Timing"/>
                <ItemRef ItemOID="IT.IE.TAETORD" Mandatory="No" OrderNumber="15" Role="Timing"/>
                <ItemRef ItemOID="IT.IE.EPOCH" Mandatory="No" OrderNumber="16" Role="Timing"/>
                <ItemRef ItemOID="IT.IE.IEDTC" Mandatory="No" OrderNumber="17" Role="Timing"/>
                <ItemRef ItemOID="IT.IE.IEDY" Mandatory="No" OrderNumber="18" Role="Timing"/>
                <def:Class Name="FINDINGS"/>
            </ItemGroupDef>
            <ItemGroupDef Domain="IS" Name="IS" OID="IGD.IS" Purpose="Tabulation" Repeating="No"
                def:Structure="One record per test per visit per subject">
                <Description>
                    <TranslatedText xml:lang="en">Immunogenicity Specimen
                        Assessments</TranslatedText>
                </Description>
                <ItemRef ItemOID="IT.IS.STUDYID" Mandatory="No" OrderNumber="1" Role="Identifier"/>
                <ItemRef ItemOID="IT.IS.DOMAIN" Mandatory="No" OrderNumber="2" Role="Identifier"/>
                <ItemRef ItemOID="IT.IS.USUBJID" Mandatory="No" OrderNumber="3" Role="Identifier"/>
                <ItemRef ItemOID="IT.IS.NHOID" Mandatory="No" OrderNumber="4" Role="Identifier"/>
                <ItemRef ItemOID="IT.IS.ISSEQ" Mandatory="No" OrderNumber="5" Role="Identifier"/>
                <ItemRef ItemOID="IT.IS.ISGRPID" Mandatory="No" OrderNumber="6" Role="Identifier"/>
                <ItemRef ItemOID="IT.IS.ISREFID" Mandatory="No" OrderNumber="7" Role="Identifier"/>
                <ItemRef ItemOID="IT.IS.ISSPID" Mandatory="No" OrderNumber="8" Role="Identifier"/>
                <ItemRef ItemOID="IT.IS.ISTESTCD" Mandatory="No" OrderNumber="9" Role="Topic"/>
                <ItemRef ItemOID="IT.IS.ISTEST" Mandatory="No" OrderNumber="10"
                    Role="Synonym Qualifier"/>
                <ItemRef ItemOID="IT.IS.ISTSTCND" Mandatory="No" OrderNumber="11"
                    Role="Variable Qualifier"/>
                <ItemRef ItemOID="IT.IS.ISCNDAGT" Mandatory="No" OrderNumber="12"
                    Role="Record Qualifier"/>
                <ItemRef ItemOID="IT.IS.ISBDAGNT" Mandatory="No" OrderNumber="13"
                    Role="Variable Qualifier"/>
                <ItemRef ItemOID="IT.IS.ISTSTOPO" Mandatory="No" OrderNumber="14"
                    Role="Variable Qualifier"/>
                <ItemRef ItemOID="IT.IS.ISMSCBCE" Mandatory="No" OrderNumber="15"
                    Role="Variable Qualifier"/>
                <ItemRef ItemOID="IT.IS.ISTSTDTL" Mandatory="No" OrderNumber="16"
                    Role="Variable Qualifier"/>
                <ItemRef ItemOID="IT.IS.ISCAT" Mandatory="No" OrderNumber="17"
                    Role="Grouping Qualifier"/>
                <ItemRef ItemOID="IT.IS.ISSCAT" Mandatory="No" OrderNumber="18"
                    Role="Grouping Qualifier"/>
                <ItemRef ItemOID="IT.IS.ISORRES" Mandatory="No" OrderNumber="19"
                    Role="Result Qualifier"/>
                <ItemRef ItemOID="IT.IS.ISORRESU" Mandatory="No" OrderNumber="20"
                    Role="Variable Qualifier"/>
                <ItemRef ItemOID="IT.IS.ISORNRLO" Mandatory="No" OrderNumber="21"
                    Role="Variable Qualifier"/>
                <ItemRef ItemOID="IT.IS.ISORNRHI" Mandatory="No" OrderNumber="22"
                    Role="Variable Qualifier"/>
                <ItemRef ItemOID="IT.IS.ISSTRESC" Mandatory="No" OrderNumber="23"
                    Role="Result Qualifier"/>
                <ItemRef ItemOID="IT.IS.ISSTRESN" Mandatory="No" OrderNumber="24"
                    Role="Result Qualifier"/>
                <ItemRef ItemOID="IT.IS.ISSTRESU" Mandatory="No" OrderNumber="25"
                    Role="Variable Qualifier"/>
                <ItemRef ItemOID="IT.IS.ISSTNRLO" Mandatory="No" OrderNumber="26"
                    Role="Variable Qualifier"/>
                <ItemRef ItemOID="IT.IS.ISSTNRHI" Mandatory="No" OrderNumber="27"
                    Role="Variable Qualifier"/>
                <ItemRef ItemOID="IT.IS.ISSTNRC" Mandatory="No" OrderNumber="28"
                    Role="Variable Qualifier"/>
                <ItemRef ItemOID="IT.IS.ISNRIND" Mandatory="No" OrderNumber="29"
                    Role="Variable Qualifier"/>
                <ItemRef ItemOID="IT.IS.ISSTAT" Mandatory="No" OrderNumber="30"
                    Role="Record Qualifier"/>
                <ItemRef ItemOID="IT.IS.ISREASND" Mandatory="No" OrderNumber="31"
                    Role="Record Qualifier"/>
                <ItemRef ItemOID="IT.IS.ISNAM" Mandatory="No" OrderNumber="32"
                    Role="Record Qualifier"/>
                <ItemRef ItemOID="IT.IS.ISSPEC" Mandatory="No" OrderNumber="33"
                    Role="Record Qualifier"/>
                <ItemRef ItemOID="IT.IS.ISSPCCND" Mandatory="No" OrderNumber="34"
                    Role="Record Qualifier"/>
                <ItemRef ItemOID="IT.IS.ISSPCUFL" Mandatory="No" OrderNumber="35"
                    Role="Record Qualifier"/>
                <ItemRef ItemOID="IT.IS.ISMETHOD" Mandatory="No" OrderNumber="36"
                    Role="Record Qualifier"/>
                <ItemRef ItemOID="IT.IS.ISLOBXFL" Mandatory="No" OrderNumber="37"
                    Role="Record Qualifier"/>
                <ItemRef ItemOID="IT.IS.ISBLFL" Mandatory="No" OrderNumber="38"
                    Role="Record Qualifier"/>
                <ItemRef ItemOID="IT.IS.ISDRVFL" Mandatory="No" OrderNumber="39"
                    Role="Record Qualifier"/>
                <ItemRef ItemOID="IT.IS.ISLLOQ" Mandatory="No" OrderNumber="40"
                    Role="Variable Qualifier"/>
                <ItemRef ItemOID="IT.IS.VISITNUM" Mandatory="No" OrderNumber="41" Role="Timing"/>
                <ItemRef ItemOID="IT.IS.VISIT" Mandatory="No" OrderNumber="42" Role="Timing"/>
                <ItemRef ItemOID="IT.IS.VISITDY" Mandatory="No" OrderNumber="43" Role="Timing"/>
                <ItemRef ItemOID="IT.IS.TAETORD" Mandatory="No" OrderNumber="44" Role="Timing"/>
                <ItemRef ItemOID="IT.IS.EPOCH" Mandatory="No" OrderNumber="45" Role="Timing"/>
                <ItemRef ItemOID="IT.IS.ISDTC" Mandatory="No" OrderNumber="46" Role="Timing"/>
                <ItemRef ItemOID="IT.IS.ISENDTC" Mandatory="No" OrderNumber="47" Role="Timing"/>
                <ItemRef ItemOID="IT.IS.ISDY" Mandatory="No" OrderNumber="48" Role="Timing"/>
                <ItemRef ItemOID="IT.IS.ISENDY" Mandatory="No" OrderNumber="49" Role="Timing"/>
                <ItemRef ItemOID="IT.IS.ISTPT" Mandatory="No" OrderNumber="50" Role="Timing"/>
                <ItemRef ItemOID="IT.IS.ISTPTNUM" Mandatory="No" OrderNumber="51" Role="Timing"/>
                <ItemRef ItemOID="IT.IS.ISELTM" Mandatory="No" OrderNumber="52" Role="Timing"/>
                <ItemRef ItemOID="IT.IS.ISTPTREF" Mandatory="No" OrderNumber="53" Role="Timing"/>
                <ItemRef ItemOID="IT.IS.ISRFTDTC" Mandatory="No" OrderNumber="54" Role="Timing"/>
                <def:Class Name="FINDINGS"/>
            </ItemGroupDef>
            <ItemGroupDef Domain="LB" Name="LB" OID="IGD.LB" Purpose="Tabulation" Repeating="No"
                def:Structure="One record per lab test per time point per visit per subject">
                <Description>
                    <TranslatedText xml:lang="en">Laboratory Test Results</TranslatedText>
                </Description>
                <ItemRef ItemOID="IT.LB.STUDYID" Mandatory="No" OrderNumber="1" Role="Identifier"/>
                <ItemRef ItemOID="IT.LB.DOMAIN" Mandatory="No" OrderNumber="2" Role="Identifier"/>
                <ItemRef ItemOID="IT.LB.USUBJID" Mandatory="No" OrderNumber="3" Role="Identifier"/>
                <ItemRef ItemOID="IT.LB.LBSEQ" Mandatory="No" OrderNumber="4" Role="Identifier"/>
                <ItemRef ItemOID="IT.LB.LBGRPID" Mandatory="No" OrderNumber="5" Role="Identifier"/>
                <ItemRef ItemOID="IT.LB.LBREFID" Mandatory="No" OrderNumber="6" Role="Identifier"/>
                <ItemRef ItemOID="IT.LB.LBSPID" Mandatory="No" OrderNumber="7" Role="Identifier"/>
                <ItemRef ItemOID="IT.LB.LBTESTCD" Mandatory="No" OrderNumber="8" Role="Topic"/>
                <ItemRef ItemOID="IT.LB.LBTEST" Mandatory="No" OrderNumber="9"
                    Role="Synonym Qualifier"/>
                <ItemRef ItemOID="IT.LB.LBTSTCND" Mandatory="No" OrderNumber="10"
                    Role="Variable Qualifier"/>
                <ItemRef ItemOID="IT.LB.LBBDAGNT" Mandatory="No" OrderNumber="11"
                    Role="Variable Qualifier"/>
                <ItemRef ItemOID="IT.LB.LBTSTOPO" Mandatory="No" OrderNumber="12"
                    Role="Variable Qualifier"/>
                <ItemRef ItemOID="IT.LB.LBCAT" Mandatory="No" OrderNumber="13"
                    Role="Grouping Qualifier"/>
                <ItemRef ItemOID="IT.LB.LBSCAT" Mandatory="No" OrderNumber="14"
                    Role="Grouping Qualifier"/>
                <ItemRef ItemOID="IT.LB.LBORRES" Mandatory="No" OrderNumber="15"
                    Role="Result Qualifier"/>
                <ItemRef ItemOID="IT.LB.LBORRESU" Mandatory="No" OrderNumber="16"
                    Role="Variable Qualifier"/>
                <ItemRef ItemOID="IT.LB.LBRESSCL" Mandatory="No" OrderNumber="17"
                    Role="Record Qualifier"/>
                <ItemRef ItemOID="IT.LB.LBRESTYP" Mandatory="No" OrderNumber="18"
                    Role="Record Qualifier"/>
                <ItemRef ItemOID="IT.LB.LBCOLSRT" Mandatory="No" OrderNumber="19"
                    Role="Record Qualifier"/>
                <ItemRef ItemOID="IT.LB.LBORNRLO" Mandatory="No" OrderNumber="20"
                    Role="Variable Qualifier"/>
                <ItemRef ItemOID="IT.LB.LBORNRHI" Mandatory="No" OrderNumber="21"
                    Role="Variable Qualifier"/>
                <ItemRef ItemOID="IT.LB.LBLLOD" Mandatory="No" OrderNumber="22"
                    Role="Variable Qualifier"/>
                <ItemRef ItemOID="IT.LB.LBSTRESC" Mandatory="No" OrderNumber="23"
                    Role="Result Qualifier"/>
                <ItemRef ItemOID="IT.LB.LBSTRESN" Mandatory="No" OrderNumber="24"
                    Role="Result Qualifier"/>
                <ItemRef ItemOID="IT.LB.LBSTRESU" Mandatory="No" OrderNumber="25"
                    Role="Variable Qualifier"/>
                <ItemRef ItemOID="IT.LB.LBSTNRLO" Mandatory="No" OrderNumber="26"
                    Role="Variable Qualifier"/>
                <ItemRef ItemOID="IT.LB.LBSTNRHI" Mandatory="No" OrderNumber="27"
                    Role="Variable Qualifier"/>
                <ItemRef ItemOID="IT.LB.LBSTNRC" Mandatory="No" OrderNumber="28"
                    Role="Variable Qualifier"/>
                <ItemRef ItemOID="IT.LB.LBNRIND" Mandatory="No" OrderNumber="29"
                    Role="Variable Qualifier"/>
                <ItemRef ItemOID="IT.LB.LBSTAT" Mandatory="No" OrderNumber="30"
                    Role="Record Qualifier"/>
                <ItemRef ItemOID="IT.LB.LBREASND" Mandatory="No" OrderNumber="31"
                    Role="Record Qualifier"/>
                <ItemRef ItemOID="IT.LB.LBNAM" Mandatory="No" OrderNumber="32"
                    Role="Record Qualifier"/>
                <ItemRef ItemOID="IT.LB.LBLOINC" Mandatory="No" OrderNumber="33"
                    Role="Synonym Qualifier"/>
                <ItemRef ItemOID="IT.LB.LBSPEC" Mandatory="No" OrderNumber="34"
                    Role="Record Qualifier"/>
                <ItemRef ItemOID="IT.LB.LBSPCCND" Mandatory="No" OrderNumber="35"
                    Role="Record Qualifier"/>
                <ItemRef ItemOID="IT.LB.LBSPCUFL" Mandatory="No" OrderNumber="36"
                    Role="Record Qualifier"/>
                <ItemRef ItemOID="IT.LB.LBMETHOD" Mandatory="No" OrderNumber="37"
                    Role="Record Qualifier"/>
                <ItemRef ItemOID="IT.LB.LBANMETH" Mandatory="No" OrderNumber="38"
                    Role="Record Qualifier"/>
                <ItemRef ItemOID="IT.LB.LBTMTHSN" Mandatory="No" OrderNumber="39"
                    Role="Record Qualifier"/>
                <ItemRef ItemOID="IT.LB.LBLOBXFL" Mandatory="No" OrderNumber="40"
                    Role="Record Qualifier"/>
                <ItemRef ItemOID="IT.LB.LBBLFL" Mandatory="No" OrderNumber="41"
                    Role="Record Qualifier"/>
                <ItemRef ItemOID="IT.LB.LBFAST" Mandatory="No" OrderNumber="42"
                    Role="Record Qualifier"/>
                <ItemRef ItemOID="IT.LB.LBDRVFL" Mandatory="No" OrderNumber="43"
                    Role="Record Qualifier"/>
                <ItemRef ItemOID="IT.LB.LBTOX" Mandatory="No" OrderNumber="44"
                    Role="Variable Qualifier"/>
                <ItemRef ItemOID="IT.LB.LBTOXGR" Mandatory="No" OrderNumber="45"
                    Role="Record Qualifier"/>
                <ItemRef ItemOID="IT.LB.LBCLSIG" Mandatory="No" OrderNumber="46"
                    Role="Record Qualifier"/>
                <ItemRef ItemOID="IT.LB.VISITNUM" Mandatory="No" OrderNumber="47" Role="Timing"/>
                <ItemRef ItemOID="IT.LB.VISIT" Mandatory="No" OrderNumber="48" Role="Timing"/>
                <ItemRef ItemOID="IT.LB.VISITDY" Mandatory="No" OrderNumber="49" Role="Timing"/>
                <ItemRef ItemOID="IT.LB.TAETORD" Mandatory="No" OrderNumber="50" Role="Timing"/>
                <ItemRef ItemOID="IT.LB.EPOCH" Mandatory="No" OrderNumber="51" Role="Timing"/>
                <ItemRef ItemOID="IT.LB.LBDTC" Mandatory="No" OrderNumber="52" Role="Timing"/>
                <ItemRef ItemOID="IT.LB.LBENDTC" Mandatory="No" OrderNumber="53" Role="Timing"/>
                <ItemRef ItemOID="IT.LB.LBDY" Mandatory="No" OrderNumber="54" Role="Timing"/>
                <ItemRef ItemOID="IT.LB.LBENDY" Mandatory="No" OrderNumber="55" Role="Timing"/>
                <ItemRef ItemOID="IT.LB.LBTPT" Mandatory="No" OrderNumber="56" Role="Timing"/>
                <ItemRef ItemOID="IT.LB.LBTPTNUM" Mandatory="No" OrderNumber="57" Role="Timing"/>
                <ItemRef ItemOID="IT.LB.LBELTM" Mandatory="No" OrderNumber="58" Role="Timing"/>
                <ItemRef ItemOID="IT.LB.LBTPTREF" Mandatory="No" OrderNumber="59" Role="Timing"/>
                <ItemRef ItemOID="IT.LB.LBRFTDTC" Mandatory="No" OrderNumber="60" Role="Timing"/>
                <ItemRef ItemOID="IT.LB.LBPTFL" Mandatory="No" OrderNumber="61" Role="Timing"/>
                <ItemRef ItemOID="IT.LB.LBPDUR" Mandatory="No" OrderNumber="62" Role="Timing"/>
                <def:Class Name="FINDINGS"/>
            </ItemGroupDef>
            <ItemGroupDef Domain="MB" Name="MB" OID="IGD.MB" Purpose="Tabulation" Repeating="No"
                def:Structure="One record per microbiology specimen finding per time point per visit per subject">
                <Description>
                    <TranslatedText xml:lang="en">Microbiology Specimen</TranslatedText>
                </Description>
                <ItemRef ItemOID="IT.MB.STUDYID" Mandatory="No" OrderNumber="1" Role="Identifier"/>
                <ItemRef ItemOID="IT.MB.DOMAIN" Mandatory="No" OrderNumber="2" Role="Identifier"/>
                <ItemRef ItemOID="IT.MB.USUBJID" Mandatory="No" OrderNumber="3" Role="Identifier"/>
                <ItemRef ItemOID="IT.MB.FOCID" Mandatory="No" OrderNumber="4" Role="Identifier"/>
                <ItemRef ItemOID="IT.MB.MBSEQ" Mandatory="No" OrderNumber="5" Role="Identifier"/>
                <ItemRef ItemOID="IT.MB.MBGRPID" Mandatory="No" OrderNumber="6" Role="Identifier"/>
                <ItemRef ItemOID="IT.MB.MBREFID" Mandatory="No" OrderNumber="7" Role="Identifier"/>
                <ItemRef ItemOID="IT.MB.MBSPID" Mandatory="No" OrderNumber="8" Role="Identifier"/>
                <ItemRef ItemOID="IT.MB.MBLNKID" Mandatory="No" OrderNumber="9" Role="Identifier"/>
                <ItemRef ItemOID="IT.MB.MBLNKGRP" Mandatory="No" OrderNumber="10" Role="Identifier"/>
                <ItemRef ItemOID="IT.MB.MBTESTCD" Mandatory="No" OrderNumber="11" Role="Topic"/>
                <ItemRef ItemOID="IT.MB.MBTEST" Mandatory="No" OrderNumber="12"
                    Role="Synonym Qualifier"/>
                <ItemRef ItemOID="IT.MB.MBTSTDTL" Mandatory="No" OrderNumber="13"
                    Role="Variable Qualifier"/>
                <ItemRef ItemOID="IT.MB.MBCAT" Mandatory="No" OrderNumber="14"
                    Role="Grouping Qualifier"/>
                <ItemRef ItemOID="IT.MB.MBSCAT" Mandatory="No" OrderNumber="15"
                    Role="Grouping Qualifier"/>
                <ItemRef ItemOID="IT.MB.MBORRES" Mandatory="No" OrderNumber="16"
                    Role="Result Qualifier"/>
                <ItemRef ItemOID="IT.MB.MBORRESU" Mandatory="No" OrderNumber="17"
                    Role="Variable Qualifier"/>
                <ItemRef ItemOID="IT.MB.MBSTRESC" Mandatory="No" OrderNumber="18"
                    Role="Result Qualifier"/>
                <ItemRef ItemOID="IT.MB.MBSTRESN" Mandatory="No" OrderNumber="19"
                    Role="Result Qualifier"/>
                <ItemRef ItemOID="IT.MB.MBSTRESU" Mandatory="No" OrderNumber="20"
                    Role="Variable Qualifier"/>
                <ItemRef ItemOID="IT.MB.MBRESCAT" Mandatory="No" OrderNumber="21"
                    Role="Variable Qualifier"/>
                <ItemRef ItemOID="IT.MB.MBSTAT" Mandatory="No" OrderNumber="22"
                    Role="Record Qualifier"/>
                <ItemRef ItemOID="IT.MB.MBREASND" Mandatory="No" OrderNumber="23"
                    Role="Record Qualifier"/>
                <ItemRef ItemOID="IT.MB.MBNAM" Mandatory="No" OrderNumber="24"
                    Role="Record Qualifier"/>
                <ItemRef ItemOID="IT.MB.MBLOINC" Mandatory="No" OrderNumber="25"
                    Role="Synonym Qualifier"/>
                <ItemRef ItemOID="IT.MB.MBSPEC" Mandatory="No" OrderNumber="26"
                    Role="Record Qualifier"/>
                <ItemRef ItemOID="IT.MB.MBSPCCND" Mandatory="No" OrderNumber="27"
                    Role="Record Qualifier"/>
                <ItemRef ItemOID="IT.MB.MBLOC" Mandatory="No" OrderNumber="28"
                    Role="Record Qualifier"/>
                <ItemRef ItemOID="IT.MB.MBLAT" Mandatory="No" OrderNumber="29"
                    Role="Variable Qualifier"/>
                <ItemRef ItemOID="IT.MB.MBDIR" Mandatory="No" OrderNumber="30"
                    Role="Variable Qualifier"/>
                <ItemRef ItemOID="IT.MB.MBMETHOD" Mandatory="No" OrderNumber="31"
                    Role="Record Qualifier"/>
                <ItemRef ItemOID="IT.MB.MBLOBXFL" Mandatory="No" OrderNumber="32"
                    Role="Record Qualifier"/>
                <ItemRef ItemOID="IT.MB.MBBLFL" Mandatory="No" OrderNumber="33"
                    Role="Record Qualifier"/>
                <ItemRef ItemOID="IT.MB.MBFAST" Mandatory="No" OrderNumber="34"
                    Role="Record Qualifier"/>
                <ItemRef ItemOID="IT.MB.MBDRVFL" Mandatory="No" OrderNumber="35"
                    Role="Record Qualifier"/>
                <ItemRef ItemOID="IT.MB.VISITNUM" Mandatory="No" OrderNumber="36" Role="Timing"/>
                <ItemRef ItemOID="IT.MB.VISIT" Mandatory="No" OrderNumber="37" Role="Timing"/>
                <ItemRef ItemOID="IT.MB.VISITDY" Mandatory="No" OrderNumber="38" Role="Timing"/>
                <ItemRef ItemOID="IT.MB.TAETORD" Mandatory="No" OrderNumber="39" Role="Timing"/>
                <ItemRef ItemOID="IT.MB.EPOCH" Mandatory="No" OrderNumber="40" Role="Timing"/>
                <ItemRef ItemOID="IT.MB.MBDTC" Mandatory="No" OrderNumber="41" Role="Timing"/>
                <ItemRef ItemOID="IT.MB.MBDY" Mandatory="No" OrderNumber="42" Role="Timing"/>
                <ItemRef ItemOID="IT.MB.MBTPT" Mandatory="No" OrderNumber="43" Role="Timing"/>
                <ItemRef ItemOID="IT.MB.MBTPTNUM" Mandatory="No" OrderNumber="44" Role="Timing"/>
                <ItemRef ItemOID="IT.MB.MBELTM" Mandatory="No" OrderNumber="45" Role="Timing"/>
                <ItemRef ItemOID="IT.MB.MBTPTREF" Mandatory="No" OrderNumber="46" Role="Timing"/>
                <ItemRef ItemOID="IT.MB.MBRFTDTC" Mandatory="No" OrderNumber="47" Role="Timing"/>
                <def:Class Name="FINDINGS"/>
            </ItemGroupDef>
            <ItemGroupDef Domain="MI" Name="MI" OID="IGD.MI" Purpose="Tabulation" Repeating="No"
                def:Structure="One record per finding per specimen per subject">
                <Description>
                    <TranslatedText xml:lang="en">Microscopic Findings</TranslatedText>
                </Description>
                <ItemRef ItemOID="IT.MI.STUDYID" Mandatory="No" OrderNumber="1" Role="Identifier"/>
                <ItemRef ItemOID="IT.MI.DOMAIN" Mandatory="No" OrderNumber="2" Role="Identifier"/>
                <ItemRef ItemOID="IT.MI.USUBJID" Mandatory="No" OrderNumber="3" Role="Identifier"/>
                <ItemRef ItemOID="IT.MI.MISEQ" Mandatory="No" OrderNumber="4" Role="Identifier"/>
                <ItemRef ItemOID="IT.MI.MIGRPID" Mandatory="No" OrderNumber="5" Role="Identifier"/>
                <ItemRef ItemOID="IT.MI.MIREFID" Mandatory="No" OrderNumber="6" Role="Identifier"/>
                <ItemRef ItemOID="IT.MI.MISPID" Mandatory="No" OrderNumber="7" Role="Identifier"/>
                <ItemRef ItemOID="IT.MI.MITESTCD" Mandatory="No" OrderNumber="8" Role="Topic"/>
                <ItemRef ItemOID="IT.MI.MITEST" Mandatory="No" OrderNumber="9"
                    Role="Synonym Qualifier"/>
                <ItemRef ItemOID="IT.MI.MITSTDTL" Mandatory="No" OrderNumber="10"
                    Role="Record Qualifier"/>
                <ItemRef ItemOID="IT.MI.MICAT" Mandatory="No" OrderNumber="11"
                    Role="Grouping Qualifier"/>
                <ItemRef ItemOID="IT.MI.MISCAT" Mandatory="No" OrderNumber="12"
                    Role="Grouping Qualifier"/>
                <ItemRef ItemOID="IT.MI.MIORRES" Mandatory="No" OrderNumber="13"
                    Role="Result Qualifier"/>
                <ItemRef ItemOID="IT.MI.MIORRESU" Mandatory="No" OrderNumber="14"
                    Role="Variable Qualifier"/>
                <ItemRef ItemOID="IT.MI.MISTRESC" Mandatory="No" OrderNumber="15"
                    Role="Result Qualifier"/>
                <ItemRef ItemOID="IT.MI.MISTRESN" Mandatory="No" OrderNumber="16"
                    Role="Result Qualifier"/>
                <ItemRef ItemOID="IT.MI.MISTRESU" Mandatory="No" OrderNumber="17"
                    Role="Variable Qualifier"/>
                <ItemRef ItemOID="IT.MI.MIRESCAT" Mandatory="No" OrderNumber="18"
                    Role="Variable Qualifier"/>
                <ItemRef ItemOID="IT.MI.MISTAT" Mandatory="No" OrderNumber="19"
                    Role="Record Qualifier"/>
                <ItemRef ItemOID="IT.MI.MIREASND" Mandatory="No" OrderNumber="20"
                    Role="Record Qualifier"/>
                <ItemRef ItemOID="IT.MI.MINAM" Mandatory="No" OrderNumber="21"
                    Role="Record Qualifier"/>
                <ItemRef ItemOID="IT.MI.MISPEC" Mandatory="No" OrderNumber="22"
                    Role="Record Qualifier"/>
                <ItemRef ItemOID="IT.MI.MISPCCND" Mandatory="No" OrderNumber="23"
                    Role="Record Qualifier"/>
                <ItemRef ItemOID="IT.MI.MILOC" Mandatory="No" OrderNumber="24"
                    Role="Record Qualifier"/>
                <ItemRef ItemOID="IT.MI.MILAT" Mandatory="No" OrderNumber="25"
                    Role="Variable Qualifier"/>
                <ItemRef ItemOID="IT.MI.MIDIR" Mandatory="No" OrderNumber="26"
                    Role="Variable Qualifier"/>
                <ItemRef ItemOID="IT.MI.MIMETHOD" Mandatory="No" OrderNumber="27"
                    Role="Record Qualifier"/>
                <ItemRef ItemOID="IT.MI.MILOBXFL" Mandatory="No" OrderNumber="28"
                    Role="Record Qualifier"/>
                <ItemRef ItemOID="IT.MI.MIBLFL" Mandatory="No" OrderNumber="29"
                    Role="Record Qualifier"/>
                <ItemRef ItemOID="IT.MI.MIEVAL" Mandatory="No" OrderNumber="30"
                    Role="Record Qualifier"/>
                <ItemRef ItemOID="IT.MI.VISITNUM" Mandatory="No" OrderNumber="31" Role="Timing"/>
                <ItemRef ItemOID="IT.MI.VISIT" Mandatory="No" OrderNumber="32" Role="Timing"/>
                <ItemRef ItemOID="IT.MI.VISITDY" Mandatory="No" OrderNumber="33" Role="Timing"/>
                <ItemRef ItemOID="IT.MI.TAETORD" Mandatory="No" OrderNumber="34" Role="Timing"/>
                <ItemRef ItemOID="IT.MI.EPOCH" Mandatory="No" OrderNumber="35" Role="Timing"/>
                <ItemRef ItemOID="IT.MI.MIDTC" Mandatory="No" OrderNumber="36" Role="Timing"/>
                <ItemRef ItemOID="IT.MI.MIDY" Mandatory="No" OrderNumber="37" Role="Timing"/>
                <def:Class Name="FINDINGS"/>
            </ItemGroupDef>
            <ItemGroupDef Domain="MK" Name="MK" OID="IGD.MK" Purpose="Tabulation" Repeating="No"
                def:Structure="One record per assessment per visit per subject">
                <Description>
                    <TranslatedText xml:lang="en">Musculoskeletal System Findings</TranslatedText>
                </Description>
                <ItemRef ItemOID="IT.MK.STUDYID" Mandatory="No" OrderNumber="1" Role="Identifier"/>
                <ItemRef ItemOID="IT.MK.DOMAIN" Mandatory="No" OrderNumber="2" Role="Identifier"/>
                <ItemRef ItemOID="IT.MK.USUBJID" Mandatory="No" OrderNumber="3" Role="Identifier"/>
                <ItemRef ItemOID="IT.MK.MKSEQ" Mandatory="No" OrderNumber="4" Role="Identifier"/>
                <ItemRef ItemOID="IT.MK.MKGRPID" Mandatory="No" OrderNumber="5" Role="Identifier"/>
                <ItemRef ItemOID="IT.MK.MKREFID" Mandatory="No" OrderNumber="6" Role="Identifier"/>
                <ItemRef ItemOID="IT.MK.MKSPID" Mandatory="No" OrderNumber="7" Role="Identifier"/>
                <ItemRef ItemOID="IT.MK.MKLNKID" Mandatory="No" OrderNumber="8" Role="Identifier"/>
                <ItemRef ItemOID="IT.MK.MKLNKGRP" Mandatory="No" OrderNumber="9" Role="Identifier"/>
                <ItemRef ItemOID="IT.MK.MKTESTCD" Mandatory="No" OrderNumber="10" Role="Topic"/>
                <ItemRef ItemOID="IT.MK.MKTEST" Mandatory="No" OrderNumber="11"
                    Role="Synonym Qualifier"/>
                <ItemRef ItemOID="IT.MK.MKCAT" Mandatory="No" OrderNumber="12"
                    Role="Grouping Qualifier"/>
                <ItemRef ItemOID="IT.MK.MKSCAT" Mandatory="No" OrderNumber="13"
                    Role="Grouping Qualifier"/>
                <ItemRef ItemOID="IT.MK.MKPOS" Mandatory="No" OrderNumber="14"
                    Role="Record Qualifier"/>
                <ItemRef ItemOID="IT.MK.MKORRES" Mandatory="No" OrderNumber="15"
                    Role="Result Qualifier"/>
                <ItemRef ItemOID="IT.MK.MKORRESU" Mandatory="No" OrderNumber="16"
                    Role="Variable Qualifier"/>
                <ItemRef ItemOID="IT.MK.MKSTRESC" Mandatory="No" OrderNumber="17"
                    Role="Result Qualifier"/>
                <ItemRef ItemOID="IT.MK.MKSTRESN" Mandatory="No" OrderNumber="18"
                    Role="Result Qualifier"/>
                <ItemRef ItemOID="IT.MK.MKSTRESU" Mandatory="No" OrderNumber="19"
                    Role="Variable Qualifier"/>
                <ItemRef ItemOID="IT.MK.MKSTAT" Mandatory="No" OrderNumber="20"
                    Role="Record Qualifier"/>
                <ItemRef ItemOID="IT.MK.MKREASND" Mandatory="No" OrderNumber="21"
                    Role="Record Qualifier"/>
                <ItemRef ItemOID="IT.MK.MKLOC" Mandatory="No" OrderNumber="22"
                    Role="Record Qualifier"/>
                <ItemRef ItemOID="IT.MK.MKLAT" Mandatory="No" OrderNumber="23"
                    Role="Variable Qualifier"/>
                <ItemRef ItemOID="IT.MK.MKDIR" Mandatory="No" OrderNumber="24"
                    Role="Variable Qualifier"/>
                <ItemRef ItemOID="IT.MK.MKMETHOD" Mandatory="No" OrderNumber="25"
                    Role="Record Qualifier"/>
                <ItemRef ItemOID="IT.MK.MKLOBXFL" Mandatory="No" OrderNumber="26"
                    Role="Record Qualifier"/>
                <ItemRef ItemOID="IT.MK.MKBLFL" Mandatory="No" OrderNumber="27"
                    Role="Record Qualifier"/>
                <ItemRef ItemOID="IT.MK.MKDRVFL" Mandatory="No" OrderNumber="28"
                    Role="Record Qualifier"/>
                <ItemRef ItemOID="IT.MK.MKEVAL" Mandatory="No" OrderNumber="29"
                    Role="Record Qualifier"/>
                <ItemRef ItemOID="IT.MK.MKEVALID" Mandatory="No" OrderNumber="30"
                    Role="Variable Qualifier"/>
                <ItemRef ItemOID="IT.MK.VISITNUM" Mandatory="No" OrderNumber="31" Role="Timing"/>
                <ItemRef ItemOID="IT.MK.VISIT" Mandatory="No" OrderNumber="32" Role="Timing"/>
                <ItemRef ItemOID="IT.MK.VISITDY" Mandatory="No" OrderNumber="33" Role="Timing"/>
                <ItemRef ItemOID="IT.MK.TAETORD" Mandatory="No" OrderNumber="34" Role="Timing"/>
                <ItemRef ItemOID="IT.MK.EPOCH" Mandatory="No" OrderNumber="35" Role="Timing"/>
                <ItemRef ItemOID="IT.MK.MKDTC" Mandatory="No" OrderNumber="36" Role="Timing"/>
                <ItemRef ItemOID="IT.MK.MKDY" Mandatory="No" OrderNumber="37" Role="Timing"/>
                <ItemRef ItemOID="IT.MK.MKTPT" Mandatory="No" OrderNumber="38" Role="Timing"/>
                <ItemRef ItemOID="IT.MK.MKTPTNUM" Mandatory="No" OrderNumber="39" Role="Timing"/>
                <ItemRef ItemOID="IT.MK.MKELTM" Mandatory="No" OrderNumber="40" Role="Timing"/>
                <ItemRef ItemOID="IT.MK.MKTPTREF" Mandatory="No" OrderNumber="41" Role="Timing"/>
                <ItemRef ItemOID="IT.MK.MKRFTDTC" Mandatory="No" OrderNumber="42" Role="Timing"/>
                <def:Class Name="FINDINGS"/>
            </ItemGroupDef>
            <ItemGroupDef Domain="MS" Name="MS" OID="IGD.MS" Purpose="Tabulation" Repeating="No"
                def:Structure="One record per microbiology susceptibility test (or other organism-related finding) per organism found in MB">
                <Description>
                    <TranslatedText xml:lang="en">Microbiology Susceptibility</TranslatedText>
                </Description>
                <ItemRef ItemOID="IT.MS.STUDYID" Mandatory="No" OrderNumber="1" Role="Identifier"/>
                <ItemRef ItemOID="IT.MS.DOMAIN" Mandatory="No" OrderNumber="2" Role="Identifier"/>
                <ItemRef ItemOID="IT.MS.USUBJID" Mandatory="No" OrderNumber="3" Role="Identifier"/>
                <ItemRef ItemOID="IT.MS.NHOID" Mandatory="No" OrderNumber="4" Role="Identifier"/>
                <ItemRef ItemOID="IT.MS.MSSEQ" Mandatory="No" OrderNumber="5" Role="Identifier"/>
                <ItemRef ItemOID="IT.MS.MSGRPID" Mandatory="No" OrderNumber="6" Role="Identifier"/>
                <ItemRef ItemOID="IT.MS.MSREFID" Mandatory="No" OrderNumber="7" Role="Identifier"/>
                <ItemRef ItemOID="IT.MS.MSSPID" Mandatory="No" OrderNumber="8" Role="Identifier"/>
                <ItemRef ItemOID="IT.MS.MSLNKID" Mandatory="No" OrderNumber="9" Role="Identifier"/>
                <ItemRef ItemOID="IT.MS.MSTESTCD" Mandatory="No" OrderNumber="10" Role="Topic"/>
                <ItemRef ItemOID="IT.MS.MSTEST" Mandatory="No" OrderNumber="11"
                    Role="Synonym Qualifier"/>
                <ItemRef ItemOID="IT.MS.MSAGENT" Mandatory="No" OrderNumber="12"
                    Role="Variable Qualifier"/>
                <ItemRef ItemOID="IT.MS.MSCONC" Mandatory="No" OrderNumber="13"
                    Role="Variable Qualifier"/>
                <ItemRef ItemOID="IT.MS.MSCONCU" Mandatory="No" OrderNumber="14"
                    Role="Variable Qualifier"/>
                <ItemRef ItemOID="IT.MS.MSTSTDTL" Mandatory="No" OrderNumber="15"
                    Role="Variable Qualifier"/>
                <ItemRef ItemOID="IT.MS.MSCAT" Mandatory="No" OrderNumber="16"
                    Role="Grouping Qualifier"/>
                <ItemRef ItemOID="IT.MS.MSSCAT" Mandatory="No" OrderNumber="17"
                    Role="Grouping Qualifier"/>
                <ItemRef ItemOID="IT.MS.MSORRES" Mandatory="No" OrderNumber="18"
                    Role="Result Qualifier"/>
                <ItemRef ItemOID="IT.MS.MSORRESU" Mandatory="No" OrderNumber="19"
                    Role="Variable Qualifier"/>
                <ItemRef ItemOID="IT.MS.MSSTRESC" Mandatory="No" OrderNumber="20"
                    Role="Result Qualifier"/>
                <ItemRef ItemOID="IT.MS.MSSTRESN" Mandatory="No" OrderNumber="21"
                    Role="Result Qualifier"/>
                <ItemRef ItemOID="IT.MS.MSSTRESU" Mandatory="No" OrderNumber="22"
                    Role="Variable Qualifier"/>
                <ItemRef ItemOID="IT.MS.MSNRIND" Mandatory="No" OrderNumber="23"
                    Role="Variable Qualifier"/>
                <ItemRef ItemOID="IT.MS.MSRESCAT" Mandatory="No" OrderNumber="24"
                    Role="Variable Qualifier"/>
                <ItemRef ItemOID="IT.MS.MSSTAT" Mandatory="No" OrderNumber="25"
                    Role="Record Qualifier"/>
                <ItemRef ItemOID="IT.MS.MSREASND" Mandatory="No" OrderNumber="26"
                    Role="Record Qualifier"/>
                <ItemRef ItemOID="IT.MS.MSXFN" Mandatory="No" OrderNumber="27"
                    Role="Record Qualifier"/>
                <ItemRef ItemOID="IT.MS.MSNAM" Mandatory="No" OrderNumber="28"
                    Role="Record Qualifier"/>
                <ItemRef ItemOID="IT.MS.MSLOINC" Mandatory="No" OrderNumber="29"
                    Role="Synonym Qualifier"/>
                <ItemRef ItemOID="IT.MS.MSSPEC" Mandatory="No" OrderNumber="30"
                    Role="Record Qualifier"/>
                <ItemRef ItemOID="IT.MS.MSSPCCND" Mandatory="No" OrderNumber="31"
                    Role="Record Qualifier"/>
                <ItemRef ItemOID="IT.MS.MSLOC" Mandatory="No" OrderNumber="32"
                    Role="Record Qualifier"/>
                <ItemRef ItemOID="IT.MS.MSLAT" Mandatory="No" OrderNumber="33"
                    Role="Variable Qualifier"/>
                <ItemRef ItemOID="IT.MS.MSDIR" Mandatory="No" OrderNumber="34"
                    Role="Variable Qualifier"/>
                <ItemRef ItemOID="IT.MS.MSMETHOD" Mandatory="No" OrderNumber="35"
                    Role="Record Qualifier"/>
                <ItemRef ItemOID="IT.MS.MSANMETH" Mandatory="No" OrderNumber="36"
                    Role="Record Qualifier"/>
                <ItemRef ItemOID="IT.MS.MSLOBXFL" Mandatory="No" OrderNumber="37"
                    Role="Record Qualifier"/>
                <ItemRef ItemOID="IT.MS.MSBLFL" Mandatory="No" OrderNumber="38"
                    Role="Record Qualifier"/>
                <ItemRef ItemOID="IT.MS.MSFAST" Mandatory="No" OrderNumber="39"
                    Role="Record Qualifier"/>
                <ItemRef ItemOID="IT.MS.MSDRVFL" Mandatory="No" OrderNumber="40"
                    Role="Record Qualifier"/>
                <ItemRef ItemOID="IT.MS.MSEVAL" Mandatory="No" OrderNumber="41"
                    Role="Record Qualifier"/>
                <ItemRef ItemOID="IT.MS.MSEVALID" Mandatory="No" OrderNumber="42"
                    Role="Variable Qualifier"/>
                <ItemRef ItemOID="IT.MS.MSACPTFL" Mandatory="No" OrderNumber="43"
                    Role="Record Qualifier"/>
                <ItemRef ItemOID="IT.MS.MSLLOQ" Mandatory="No" OrderNumber="44"
                    Role="Variable Qualifier"/>
                <ItemRef ItemOID="IT.MS.MSULOQ" Mandatory="No" OrderNumber="45"
                    Role="Variable Qualifier"/>
                <ItemRef ItemOID="IT.MS.MSREPNUM" Mandatory="No" OrderNumber="46"
                    Role="Record Qualifier"/>
                <ItemRef ItemOID="IT.MS.VISITNUM" Mandatory="No" OrderNumber="47" Role="Timing"/>
                <ItemRef ItemOID="IT.MS.VISIT" Mandatory="No" OrderNumber="48" Role="Timing"/>
                <ItemRef ItemOID="IT.MS.VISITDY" Mandatory="No" OrderNumber="49" Role="Timing"/>
                <ItemRef ItemOID="IT.MS.TAETORD" Mandatory="No" OrderNumber="50" Role="Timing"/>
                <ItemRef ItemOID="IT.MS.EPOCH" Mandatory="No" OrderNumber="51" Role="Timing"/>
                <ItemRef ItemOID="IT.MS.MSDTC" Mandatory="No" OrderNumber="52" Role="Timing"/>
                <ItemRef ItemOID="IT.MS.MSDY" Mandatory="No" OrderNumber="53" Role="Timing"/>
                <ItemRef ItemOID="IT.MS.MSDUR" Mandatory="No" OrderNumber="54" Role="Timing"/>
                <ItemRef ItemOID="IT.MS.MSTPT" Mandatory="No" OrderNumber="55" Role="Timing"/>
                <ItemRef ItemOID="IT.MS.MSTPTNUM" Mandatory="No" OrderNumber="56" Role="Timing"/>
                <ItemRef ItemOID="IT.MS.MSELTM" Mandatory="No" OrderNumber="57" Role="Timing"/>
                <ItemRef ItemOID="IT.MS.MSTPTREF" Mandatory="No" OrderNumber="58" Role="Timing"/>
                <ItemRef ItemOID="IT.MS.MSRFTDTC" Mandatory="No" OrderNumber="59" Role="Timing"/>
                <ItemRef ItemOID="IT.MS.MSEVLINT" Mandatory="No" OrderNumber="60" Role="Timing"/>
                <ItemRef ItemOID="IT.MS.MSEVINTX" Mandatory="No" OrderNumber="61" Role="Timing"/>
                <def:Class Name="FINDINGS"/>
            </ItemGroupDef>
            <ItemGroupDef Domain="NV" Name="NV" OID="IGD.NV" Purpose="Tabulation" Repeating="No"
                def:Structure="One record per finding per location per time point per visit per subject">
                <Description>
                    <TranslatedText xml:lang="en">Nervous System Findings</TranslatedText>
                </Description>
                <ItemRef ItemOID="IT.NV.STUDYID" Mandatory="No" OrderNumber="1" Role="Identifier"/>
                <ItemRef ItemOID="IT.NV.DOMAIN" Mandatory="No" OrderNumber="2" Role="Identifier"/>
                <ItemRef ItemOID="IT.NV.USUBJID" Mandatory="No" OrderNumber="3" Role="Identifier"/>
                <ItemRef ItemOID="IT.NV.FOCID" Mandatory="No" OrderNumber="4" Role="Identifier"/>
                <ItemRef ItemOID="IT.NV.NVSEQ" Mandatory="No" OrderNumber="5" Role="Identifier"/>
                <ItemRef ItemOID="IT.NV.NVGRPID" Mandatory="No" OrderNumber="6" Role="Identifier"/>
                <ItemRef ItemOID="IT.NV.NVREFID" Mandatory="No" OrderNumber="7" Role="Identifier"/>
                <ItemRef ItemOID="IT.NV.NVSPID" Mandatory="No" OrderNumber="8" Role="Identifier"/>
                <ItemRef ItemOID="IT.NV.NVLNKID" Mandatory="No" OrderNumber="9" Role="Identifier"/>
                <ItemRef ItemOID="IT.NV.NVLNKGRP" Mandatory="No" OrderNumber="10" Role="Identifier"/>
                <ItemRef ItemOID="IT.NV.NVTESTCD" Mandatory="No" OrderNumber="11" Role="Topic"/>
                <ItemRef ItemOID="IT.NV.NVTEST" Mandatory="No" OrderNumber="12"
                    Role="Synonym Qualifier"/>
                <ItemRef ItemOID="IT.NV.NVCAT" Mandatory="No" OrderNumber="13"
                    Role="Grouping Qualifier"/>
                <ItemRef ItemOID="IT.NV.NVSCAT" Mandatory="No" OrderNumber="14"
                    Role="Grouping Qualifier"/>
                <ItemRef ItemOID="IT.NV.NVORRES" Mandatory="No" OrderNumber="15"
                    Role="Result Qualifier"/>
                <ItemRef ItemOID="IT.NV.NVORRESU" Mandatory="No" OrderNumber="16"
                    Role="Variable Qualifier"/>
                <ItemRef ItemOID="IT.NV.NVSTRESC" Mandatory="No" OrderNumber="17"
                    Role="Result Qualifier"/>
                <ItemRef ItemOID="IT.NV.NVSTRESN" Mandatory="No" OrderNumber="18"
                    Role="Result Qualifier"/>
                <ItemRef ItemOID="IT.NV.NVSTRESU" Mandatory="No" OrderNumber="19"
                    Role="Variable Qualifier"/>
                <ItemRef ItemOID="IT.NV.NVSTAT" Mandatory="No" OrderNumber="20"
                    Role="Record Qualifier"/>
                <ItemRef ItemOID="IT.NV.NVREASND" Mandatory="No" OrderNumber="21"
                    Role="Record Qualifier"/>
                <ItemRef ItemOID="IT.NV.NVLOC" Mandatory="No" OrderNumber="22"
                    Role="Record Qualifier"/>
                <ItemRef ItemOID="IT.NV.NVLAT" Mandatory="No" OrderNumber="23"
                    Role="Variable Qualifier"/>
                <ItemRef ItemOID="IT.NV.NVDIR" Mandatory="No" OrderNumber="24"
                    Role="Variable Qualifier"/>
                <ItemRef ItemOID="IT.NV.NVMETHOD" Mandatory="No" OrderNumber="25"
                    Role="Record Qualifier"/>
                <ItemRef ItemOID="IT.NV.NVLOBXFL" Mandatory="No" OrderNumber="26"
                    Role="Record Qualifier"/>
                <ItemRef ItemOID="IT.NV.NVBLFL" Mandatory="No" OrderNumber="27"
                    Role="Record Qualifier"/>
                <ItemRef ItemOID="IT.NV.NVDRVFL" Mandatory="No" OrderNumber="28"
                    Role="Record Qualifier"/>
                <ItemRef ItemOID="IT.NV.NVEVAL" Mandatory="No" OrderNumber="29"
                    Role="Record Qualifier"/>
                <ItemRef ItemOID="IT.NV.NVEVALID" Mandatory="No" OrderNumber="30"
                    Role="Variable Qualifier"/>
                <ItemRef ItemOID="IT.NV.VISITNUM" Mandatory="No" OrderNumber="31" Role="Timing"/>
                <ItemRef ItemOID="IT.NV.VISIT" Mandatory="No" OrderNumber="32" Role="Timing"/>
                <ItemRef ItemOID="IT.NV.VISITDY" Mandatory="No" OrderNumber="33" Role="Timing"/>
                <ItemRef ItemOID="IT.NV.TAETORD" Mandatory="No" OrderNumber="34" Role="Timing"/>
                <ItemRef ItemOID="IT.NV.EPOCH" Mandatory="No" OrderNumber="35" Role="Timing"/>
                <ItemRef ItemOID="IT.NV.NVDTC" Mandatory="No" OrderNumber="36" Role="Timing"/>
                <ItemRef ItemOID="IT.NV.NVDY" Mandatory="No" OrderNumber="37" Role="Timing"/>
                <ItemRef ItemOID="IT.NV.NVTPT" Mandatory="No" OrderNumber="38" Role="Timing"/>
                <ItemRef ItemOID="IT.NV.NVTPTNUM" Mandatory="No" OrderNumber="39" Role="Timing"/>
                <ItemRef ItemOID="IT.NV.NVELTM" Mandatory="No" OrderNumber="40" Role="Timing"/>
                <ItemRef ItemOID="IT.NV.NVTPTREF" Mandatory="No" OrderNumber="41" Role="Timing"/>
                <ItemRef ItemOID="IT.NV.NVRFTDTC" Mandatory="No" OrderNumber="42" Role="Timing"/>
                <def:Class Name="FINDINGS"/>
            </ItemGroupDef>
            <ItemGroupDef Domain="OE" Name="OE" OID="IGD.OE" Purpose="Tabulation" Repeating="No"
                def:Structure="One record per ophthalmic finding per method per location, per time point per visit per subject">
                <Description>
                    <TranslatedText xml:lang="en">Ophthalmic Examinations</TranslatedText>
                </Description>
                <ItemRef ItemOID="IT.OE.STUDYID" Mandatory="No" OrderNumber="1" Role="Identifier"/>
                <ItemRef ItemOID="IT.OE.DOMAIN" Mandatory="No" OrderNumber="2" Role="Identifier"/>
                <ItemRef ItemOID="IT.OE.USUBJID" Mandatory="No" OrderNumber="3" Role="Identifier"/>
                <ItemRef ItemOID="IT.OE.FOCID" Mandatory="No" OrderNumber="4" Role="Identifier"/>
                <ItemRef ItemOID="IT.OE.OESEQ" Mandatory="No" OrderNumber="5" Role="Identifier"/>
                <ItemRef ItemOID="IT.OE.OEGRPID" Mandatory="No" OrderNumber="6" Role="Identifier"/>
                <ItemRef ItemOID="IT.OE.OELNKID" Mandatory="No" OrderNumber="7" Role="Identifier"/>
                <ItemRef ItemOID="IT.OE.OELNKGRP" Mandatory="No" OrderNumber="8" Role="Identifier"/>
                <ItemRef ItemOID="IT.OE.OETESTCD" Mandatory="No" OrderNumber="9" Role="Topic"/>
                <ItemRef ItemOID="IT.OE.OETEST" Mandatory="No" OrderNumber="10"
                    Role="Synonym Qualifier"/>
                <ItemRef ItemOID="IT.OE.OETSTDTL" Mandatory="No" OrderNumber="11"
                    Role="Variable Qualifier"/>
                <ItemRef ItemOID="IT.OE.OECAT" Mandatory="No" OrderNumber="12"
                    Role="Grouping Qualifier"/>
                <ItemRef ItemOID="IT.OE.OESCAT" Mandatory="No" OrderNumber="13"
                    Role="Grouping Qualifier"/>
                <ItemRef ItemOID="IT.OE.OEORRES" Mandatory="No" OrderNumber="14"
                    Role="Result Qualifier"/>
                <ItemRef ItemOID="IT.OE.OEORRESU" Mandatory="No" OrderNumber="15"
                    Role="Variable Qualifier"/>
                <ItemRef ItemOID="IT.OE.OEORNRLO" Mandatory="No" OrderNumber="16"
                    Role="Variable Qualifier"/>
                <ItemRef ItemOID="IT.OE.OEORNRHI" Mandatory="No" OrderNumber="17"
                    Role="Variable Qualifier"/>
                <ItemRef ItemOID="IT.OE.OESTRESC" Mandatory="No" OrderNumber="18"
                    Role="Result Qualifier"/>
                <ItemRef ItemOID="IT.OE.OESTRESN" Mandatory="No" OrderNumber="19"
                    Role="Result Qualifier"/>
                <ItemRef ItemOID="IT.OE.OESTRESU" Mandatory="No" OrderNumber="20"
                    Role="Variable Qualifier"/>
                <ItemRef ItemOID="IT.OE.OESTNRLO" Mandatory="No" OrderNumber="21"
                    Role="Variable Qualifier"/>
                <ItemRef ItemOID="IT.OE.OESTNRHI" Mandatory="No" OrderNumber="22"
                    Role="Variable Qualifier"/>
                <ItemRef ItemOID="IT.OE.OESTNRC" Mandatory="No" OrderNumber="23"
                    Role="Variable Qualifier"/>
                <ItemRef ItemOID="IT.OE.OENRIND" Mandatory="No" OrderNumber="24"
                    Role="Variable Qualifier"/>
                <ItemRef ItemOID="IT.OE.OERESCAT" Mandatory="No" OrderNumber="25"
                    Role="Variable Qualifier"/>
                <ItemRef ItemOID="IT.OE.OESTAT" Mandatory="No" OrderNumber="26"
                    Role="Record Qualifier"/>
                <ItemRef ItemOID="IT.OE.OEREASND" Mandatory="No" OrderNumber="27"
                    Role="Record Qualifier"/>
                <ItemRef ItemOID="IT.OE.OEXFN" Mandatory="No" OrderNumber="28"
                    Role="Record Qualifier"/>
                <ItemRef ItemOID="IT.OE.OELOC" Mandatory="No" OrderNumber="29"
                    Role="Record Qualifier"/>
                <ItemRef ItemOID="IT.OE.OELAT" Mandatory="No" OrderNumber="30"
                    Role="Variable Qualifier"/>
                <ItemRef ItemOID="IT.OE.OEDIR" Mandatory="No" OrderNumber="31"
                    Role="Variable Qualifier"/>
                <ItemRef ItemOID="IT.OE.OEPORTOT" Mandatory="No" OrderNumber="32"
                    Role="Variable Qualifier"/>
                <ItemRef ItemOID="IT.OE.OEMETHOD" Mandatory="No" OrderNumber="33"
                    Role="Record Qualifier"/>
                <ItemRef ItemOID="IT.OE.OELOBXFL" Mandatory="No" OrderNumber="34"
                    Role="Record Qualifier"/>
                <ItemRef ItemOID="IT.OE.OEBLFL" Mandatory="No" OrderNumber="35"
                    Role="Record Qualifier"/>
                <ItemRef ItemOID="IT.OE.OEDRVFL" Mandatory="No" OrderNumber="36"
                    Role="Record Qualifier"/>
                <ItemRef ItemOID="IT.OE.OEEVAL" Mandatory="No" OrderNumber="37"
                    Role="Record Qualifier"/>
                <ItemRef ItemOID="IT.OE.OEEVALID" Mandatory="No" OrderNumber="38"
                    Role="Variable Qualifier"/>
                <ItemRef ItemOID="IT.OE.OEACPTFL" Mandatory="No" OrderNumber="39"
                    Role="Record Qualifier"/>
                <ItemRef ItemOID="IT.OE.OEREPNUM" Mandatory="No" OrderNumber="40"
                    Role="Record Qualifier"/>
                <ItemRef ItemOID="IT.OE.VISITNUM" Mandatory="No" OrderNumber="41" Role="Timing"/>
                <ItemRef ItemOID="IT.OE.VISIT" Mandatory="No" OrderNumber="42" Role="Timing"/>
                <ItemRef ItemOID="IT.OE.VISITDY" Mandatory="No" OrderNumber="43" Role="Timing"/>
                <ItemRef ItemOID="IT.OE.TAETORD" Mandatory="No" OrderNumber="44" Role="Timing"/>
                <ItemRef ItemOID="IT.OE.EPOCH" Mandatory="No" OrderNumber="45" Role="Timing"/>
                <ItemRef ItemOID="IT.OE.OEDTC" Mandatory="No" OrderNumber="46" Role="Timing"/>
                <ItemRef ItemOID="IT.OE.OEDY" Mandatory="No" OrderNumber="47" Role="Timing"/>
                <ItemRef ItemOID="IT.OE.OETPT" Mandatory="No" OrderNumber="48" Role="Timing"/>
                <ItemRef ItemOID="IT.OE.OETPTNUM" Mandatory="No" OrderNumber="49" Role="Timing"/>
                <ItemRef ItemOID="IT.OE.OEELTM" Mandatory="No" OrderNumber="50" Role="Timing"/>
                <ItemRef ItemOID="IT.OE.OETPTREF" Mandatory="No" OrderNumber="51" Role="Timing"/>
                <ItemRef ItemOID="IT.OE.OERFTDTC" Mandatory="No" OrderNumber="52" Role="Timing"/>
                <def:Class Name="FINDINGS"/>
            </ItemGroupDef>
            <ItemGroupDef Domain="PC" Name="PC" OID="IGD.PC" Purpose="Tabulation" Repeating="No"
                def:Structure="One record per sample characteristic or time-point concentration per reference time point or per analyte per subject">
                <Description>
                    <TranslatedText xml:lang="en">Pharmacokinetics Concentrations</TranslatedText>
                </Description>
                <ItemRef ItemOID="IT.PC.STUDYID" Mandatory="No" OrderNumber="1" Role="Identifier"/>
                <ItemRef ItemOID="IT.PC.DOMAIN" Mandatory="No" OrderNumber="2" Role="Identifier"/>
                <ItemRef ItemOID="IT.PC.USUBJID" Mandatory="No" OrderNumber="3" Role="Identifier"/>
                <ItemRef ItemOID="IT.PC.PCSEQ" Mandatory="No" OrderNumber="4" Role="Identifier"/>
                <ItemRef ItemOID="IT.PC.PCGRPID" Mandatory="No" OrderNumber="5" Role="Identifier"/>
                <ItemRef ItemOID="IT.PC.PCREFID" Mandatory="No" OrderNumber="6" Role="Identifier"/>
                <ItemRef ItemOID="IT.PC.PCSPID" Mandatory="No" OrderNumber="7" Role="Identifier"/>
                <ItemRef ItemOID="IT.PC.PCTESTCD" Mandatory="No" OrderNumber="8" Role="Topic"/>
                <ItemRef ItemOID="IT.PC.PCTEST" Mandatory="No" OrderNumber="9"
                    Role="Synonym Qualifier"/>
                <ItemRef ItemOID="IT.PC.PCCAT" Mandatory="No" OrderNumber="10"
                    Role="Grouping Qualifier"/>
                <ItemRef ItemOID="IT.PC.PCSCAT" Mandatory="No" OrderNumber="11"
                    Role="Grouping Qualifier"/>
                <ItemRef ItemOID="IT.PC.PCORRES" Mandatory="No" OrderNumber="12"
                    Role="Result Qualifier"/>
                <ItemRef ItemOID="IT.PC.PCORRESU" Mandatory="No" OrderNumber="13"
                    Role="Variable Qualifier"/>
                <ItemRef ItemOID="IT.PC.PCSTRESC" Mandatory="No" OrderNumber="14"
                    Role="Result Qualifier"/>
                <ItemRef ItemOID="IT.PC.PCSTRESN" Mandatory="No" OrderNumber="15"
                    Role="Result Qualifier"/>
                <ItemRef ItemOID="IT.PC.PCSTRESU" Mandatory="No" OrderNumber="16"
                    Role="Variable Qualifier"/>
                <ItemRef ItemOID="IT.PC.PCSTAT" Mandatory="No" OrderNumber="17"
                    Role="Record Qualifier"/>
                <ItemRef ItemOID="IT.PC.PCREASND" Mandatory="No" OrderNumber="18"
                    Role="Record Qualifier"/>
                <ItemRef ItemOID="IT.PC.PCNAM" Mandatory="No" OrderNumber="19"
                    Role="Record Qualifier"/>
                <ItemRef ItemOID="IT.PC.PCSPEC" Mandatory="No" OrderNumber="20"
                    Role="Record Qualifier"/>
                <ItemRef ItemOID="IT.PC.PCSPCCND" Mandatory="No" OrderNumber="21"
                    Role="Record Qualifier"/>
                <ItemRef ItemOID="IT.PC.PCMETHOD" Mandatory="No" OrderNumber="22"
                    Role="Record Qualifier"/>
                <ItemRef ItemOID="IT.PC.PCFAST" Mandatory="No" OrderNumber="23"
                    Role="Record Qualifier"/>
                <ItemRef ItemOID="IT.PC.PCDRVFL" Mandatory="No" OrderNumber="24"
                    Role="Record Qualifier"/>
                <ItemRef ItemOID="IT.PC.PCLLOQ" Mandatory="No" OrderNumber="25"
                    Role="Variable Qualifier"/>
                <ItemRef ItemOID="IT.PC.PCULOQ" Mandatory="No" OrderNumber="26"
                    Role="Variable Qualifier"/>
                <ItemRef ItemOID="IT.PC.VISITNUM" Mandatory="No" OrderNumber="27" Role="Timing"/>
                <ItemRef ItemOID="IT.PC.VISIT" Mandatory="No" OrderNumber="28" Role="Timing"/>
                <ItemRef ItemOID="IT.PC.VISITDY" Mandatory="No" OrderNumber="29" Role="Timing"/>
                <ItemRef ItemOID="IT.PC.TAETORD" Mandatory="No" OrderNumber="30" Role="Timing"/>
                <ItemRef ItemOID="IT.PC.EPOCH" Mandatory="No" OrderNumber="31" Role="Timing"/>
                <ItemRef ItemOID="IT.PC.PCDTC" Mandatory="No" OrderNumber="32" Role="Timing"/>
                <ItemRef ItemOID="IT.PC.PCENDTC" Mandatory="No" OrderNumber="33" Role="Timing"/>
                <ItemRef ItemOID="IT.PC.PCDY" Mandatory="No" OrderNumber="34" Role="Timing"/>
                <ItemRef ItemOID="IT.PC.PCENDY" Mandatory="No" OrderNumber="35" Role="Timing"/>
                <ItemRef ItemOID="IT.PC.PCTPT" Mandatory="No" OrderNumber="36" Role="Timing"/>
                <ItemRef ItemOID="IT.PC.PCTPTNUM" Mandatory="No" OrderNumber="37" Role="Timing"/>
                <ItemRef ItemOID="IT.PC.PCELTM" Mandatory="No" OrderNumber="38" Role="Timing"/>
                <ItemRef ItemOID="IT.PC.PCTPTREF" Mandatory="No" OrderNumber="39" Role="Timing"/>
                <ItemRef ItemOID="IT.PC.PCRFTDTC" Mandatory="No" OrderNumber="40" Role="Timing"/>
                <ItemRef ItemOID="IT.PC.PCEVLINT" Mandatory="No" OrderNumber="41" Role="Timing"/>
                <def:Class Name="FINDINGS"/>
            </ItemGroupDef>
            <ItemGroupDef Domain="PE" Name="PE" OID="IGD.PE" Purpose="Tabulation" Repeating="No"
                def:Structure="One record per body system or abnormality per visit per subject">
                <Description>
                    <TranslatedText xml:lang="en">Physical Examination</TranslatedText>
                </Description>
                <ItemRef ItemOID="IT.PE.STUDYID" Mandatory="No" OrderNumber="1" Role="Identifier"/>
                <ItemRef ItemOID="IT.PE.DOMAIN" Mandatory="No" OrderNumber="2" Role="Identifier"/>
                <ItemRef ItemOID="IT.PE.USUBJID" Mandatory="No" OrderNumber="3" Role="Identifier"/>
                <ItemRef ItemOID="IT.PE.PESEQ" Mandatory="No" OrderNumber="4" Role="Identifier"/>
                <ItemRef ItemOID="IT.PE.PEGRPID" Mandatory="No" OrderNumber="5" Role="Identifier"/>
                <ItemRef ItemOID="IT.PE.PESPID" Mandatory="No" OrderNumber="6" Role="Identifier"/>
                <ItemRef ItemOID="IT.PE.PETESTCD" Mandatory="No" OrderNumber="7" Role="Topic"/>
                <ItemRef ItemOID="IT.PE.PETEST" Mandatory="No" OrderNumber="8"
                    Role="Synonym Qualifier"/>
                <ItemRef ItemOID="IT.PE.PEMODIFY" Mandatory="No" OrderNumber="9"
                    Role="Synonym Qualifier"/>
                <ItemRef ItemOID="IT.PE.PECAT" Mandatory="No" OrderNumber="10"
                    Role="Grouping Qualifier"/>
                <ItemRef ItemOID="IT.PE.PESCAT" Mandatory="No" OrderNumber="11"
                    Role="Grouping Qualifier"/>
                <ItemRef ItemOID="IT.PE.PEBODSYS" Mandatory="No" OrderNumber="12"
                    Role="Record Qualifier"/>
                <ItemRef ItemOID="IT.PE.PEORRES" Mandatory="No" OrderNumber="13"
                    Role="Result Qualifier"/>
                <ItemRef ItemOID="IT.PE.PEORRESU" Mandatory="No" OrderNumber="14"
                    Role="Variable Qualifier"/>
                <ItemRef ItemOID="IT.PE.PESTRESC" Mandatory="No" OrderNumber="15"
                    Role="Result Qualifier"/>
                <ItemRef ItemOID="IT.PE.PESTAT" Mandatory="No" OrderNumber="16"
                    Role="Record Qualifier"/>
                <ItemRef ItemOID="IT.PE.PEREASND" Mandatory="No" OrderNumber="17"
                    Role="Record Qualifier"/>
                <ItemRef ItemOID="IT.PE.PELOC" Mandatory="No" OrderNumber="18"
                    Role="Record Qualifier"/>
                <ItemRef ItemOID="IT.PE.PELAT" Mandatory="No" OrderNumber="19"
                    Role="Variable Qualifier"/>
                <ItemRef ItemOID="IT.PE.PEMETHOD" Mandatory="No" OrderNumber="20"
                    Role="Record Qualifier"/>
                <ItemRef ItemOID="IT.PE.PELOBXFL" Mandatory="No" OrderNumber="21"
                    Role="Record Qualifier"/>
                <ItemRef ItemOID="IT.PE.PEBLFL" Mandatory="No" OrderNumber="22"
                    Role="Record Qualifier"/>
                <ItemRef ItemOID="IT.PE.PEEVAL" Mandatory="No" OrderNumber="23"
                    Role="Record Qualifier"/>
                <ItemRef ItemOID="IT.PE.VISITNUM" Mandatory="No" OrderNumber="24" Role="Timing"/>
                <ItemRef ItemOID="IT.PE.VISIT" Mandatory="No" OrderNumber="25" Role="Timing"/>
                <ItemRef ItemOID="IT.PE.VISITDY" Mandatory="No" OrderNumber="26" Role="Timing"/>
                <ItemRef ItemOID="IT.PE.TAETORD" Mandatory="No" OrderNumber="27" Role="Timing"/>
                <ItemRef ItemOID="IT.PE.EPOCH" Mandatory="No" OrderNumber="28" Role="Timing"/>
                <ItemRef ItemOID="IT.PE.PEDTC" Mandatory="No" OrderNumber="29" Role="Timing"/>
                <ItemRef ItemOID="IT.PE.PEDY" Mandatory="No" OrderNumber="30" Role="Timing"/>
                <def:Class Name="FINDINGS"/>
            </ItemGroupDef>
            <ItemGroupDef Domain="PP" Name="PP" OID="IGD.PP" Purpose="Tabulation" Repeating="No"
                def:Structure="One record per PK parameter per time-concentration profile per modeling method per subject">
                <Description>
                    <TranslatedText xml:lang="en">Pharmacokinetics Parameters</TranslatedText>
                </Description>
                <ItemRef ItemOID="IT.PP.STUDYID" Mandatory="No" OrderNumber="1" Role="Identifier"/>
                <ItemRef ItemOID="IT.PP.DOMAIN" Mandatory="No" OrderNumber="2" Role="Identifier"/>
                <ItemRef ItemOID="IT.PP.USUBJID" Mandatory="No" OrderNumber="3" Role="Identifier"/>
                <ItemRef ItemOID="IT.PP.PPSEQ" Mandatory="No" OrderNumber="4" Role="Identifier"/>
                <ItemRef ItemOID="IT.PP.PPGRPID" Mandatory="No" OrderNumber="5" Role="Identifier"/>
                <ItemRef ItemOID="IT.PP.PPTESTCD" Mandatory="No" OrderNumber="6" Role="Topic"/>
                <ItemRef ItemOID="IT.PP.PPTEST" Mandatory="No" OrderNumber="7"
                    Role="Synonym Qualifier"/>
                <ItemRef ItemOID="IT.PP.PPCAT" Mandatory="No" OrderNumber="8"
                    Role="Grouping Qualifier"/>
                <ItemRef ItemOID="IT.PP.PPSCAT" Mandatory="No" OrderNumber="9"
                    Role="Grouping Qualifier"/>
                <ItemRef ItemOID="IT.PP.PPORRES" Mandatory="No" OrderNumber="10"
                    Role="Result Qualifier"/>
                <ItemRef ItemOID="IT.PP.PPORRESU" Mandatory="No" OrderNumber="11"
                    Role="Variable Qualifier"/>
                <ItemRef ItemOID="IT.PP.PPSTRESC" Mandatory="No" OrderNumber="12"
                    Role="Result Qualifier"/>
                <ItemRef ItemOID="IT.PP.PPSTRESN" Mandatory="No" OrderNumber="13"
                    Role="Result Qualifier"/>
                <ItemRef ItemOID="IT.PP.PPSTRESU" Mandatory="No" OrderNumber="14"
                    Role="Variable Qualifier"/>
                <ItemRef ItemOID="IT.PP.PPSTAT" Mandatory="No" OrderNumber="15"
                    Role="Record Qualifier"/>
                <ItemRef ItemOID="IT.PP.PPREASND" Mandatory="No" OrderNumber="16"
                    Role="Record Qualifier"/>
                <ItemRef ItemOID="IT.PP.PPSPEC" Mandatory="No" OrderNumber="17"
                    Role="Record Qualifier"/>
                <ItemRef ItemOID="IT.PP.PPANMETH" Mandatory="No" OrderNumber="18"
                    Role="Record Qualifier"/>
                <ItemRef ItemOID="IT.PP.TAETORD" Mandatory="No" OrderNumber="19" Role="Timing"/>
                <ItemRef ItemOID="IT.PP.EPOCH" Mandatory="No" OrderNumber="20" Role="Timing"/>
                <ItemRef ItemOID="IT.PP.PPDTC" Mandatory="No" OrderNumber="21" Role="Timing"/>
                <ItemRef ItemOID="IT.PP.PPDY" Mandatory="No" OrderNumber="22" Role="Timing"/>
                <ItemRef ItemOID="IT.PP.PPTPTREF" Mandatory="No" OrderNumber="23" Role="Timing"/>
                <ItemRef ItemOID="IT.PP.PPRFTDTC" Mandatory="No" OrderNumber="24" Role="Timing"/>
                <ItemRef ItemOID="IT.PP.PPSTINT" Mandatory="No" OrderNumber="25" Role="Timing"/>
                <ItemRef ItemOID="IT.PP.PPENINT" Mandatory="No" OrderNumber="26" Role="Timing"/>
                <def:Class Name="FINDINGS"/>
            </ItemGroupDef>
            <ItemGroupDef Domain="QS" Name="QS" OID="IGD.QS" Purpose="Tabulation" Repeating="No"
                def:Structure="One record per questionnaire per question per time point per visit per subject">
                <Description>
                    <TranslatedText xml:lang="en">Questionnaires</TranslatedText>
                </Description>
                <ItemRef ItemOID="IT.QS.STUDYID" Mandatory="No" OrderNumber="1" Role="Identifier"/>
                <ItemRef ItemOID="IT.QS.DOMAIN" Mandatory="No" OrderNumber="2" Role="Identifier"/>
                <ItemRef ItemOID="IT.QS.USUBJID" Mandatory="No" OrderNumber="3" Role="Identifier"/>
                <ItemRef ItemOID="IT.QS.QSSEQ" Mandatory="No" OrderNumber="4" Role="Identifier"/>
                <ItemRef ItemOID="IT.QS.QSGRPID" Mandatory="No" OrderNumber="5" Role="Identifier"/>
                <ItemRef ItemOID="IT.QS.QSSPID" Mandatory="No" OrderNumber="6" Role="Identifier"/>
                <ItemRef ItemOID="IT.QS.QSTESTCD" Mandatory="No" OrderNumber="7" Role="Topic"/>
                <ItemRef ItemOID="IT.QS.QSTEST" Mandatory="No" OrderNumber="8"
                    Role="Synonym Qualifier"/>
                <ItemRef ItemOID="IT.QS.QSCAT" Mandatory="No" OrderNumber="9"
                    Role="Grouping Qualifier"/>
                <ItemRef ItemOID="IT.QS.QSSCAT" Mandatory="No" OrderNumber="10"
                    Role="Grouping Qualifier"/>
                <ItemRef ItemOID="IT.QS.QSORRES" Mandatory="No" OrderNumber="11"
                    Role="Result Qualifier"/>
                <ItemRef ItemOID="IT.QS.QSORRESU" Mandatory="No" OrderNumber="12"
                    Role="Variable Qualifier"/>
                <ItemRef ItemOID="IT.QS.QSSTRESC" Mandatory="No" OrderNumber="13"
                    Role="Result Qualifier"/>
                <ItemRef ItemOID="IT.QS.QSSTRESN" Mandatory="No" OrderNumber="14"
                    Role="Result Qualifier"/>
                <ItemRef ItemOID="IT.QS.QSSTRESU" Mandatory="No" OrderNumber="15"
                    Role="Variable Qualifier"/>
                <ItemRef ItemOID="IT.QS.QSSTAT" Mandatory="No" OrderNumber="16"
                    Role="Record Qualifier"/>
                <ItemRef ItemOID="IT.QS.QSREASND" Mandatory="No" OrderNumber="17"
                    Role="Record Qualifier"/>
                <ItemRef ItemOID="IT.QS.QSMETHOD" Mandatory="No" OrderNumber="18"
                    Role="Record Qualifier"/>
                <ItemRef ItemOID="IT.QS.QSLOBXFL" Mandatory="No" OrderNumber="19"
                    Role="Record Qualifier"/>
                <ItemRef ItemOID="IT.QS.QSBLFL" Mandatory="No" OrderNumber="20"
                    Role="Record Qualifier"/>
                <ItemRef ItemOID="IT.QS.QSDRVFL" Mandatory="No" OrderNumber="21"
                    Role="Record Qualifier"/>
                <ItemRef ItemOID="IT.QS.VISITNUM" Mandatory="No" OrderNumber="22" Role="Timing"/>
                <ItemRef ItemOID="IT.QS.VISIT" Mandatory="No" OrderNumber="23" Role="Timing"/>
                <ItemRef ItemOID="IT.QS.VISITDY" Mandatory="No" OrderNumber="24" Role="Timing"/>
                <ItemRef ItemOID="IT.QS.TAETORD" Mandatory="No" OrderNumber="25" Role="Timing"/>
                <ItemRef ItemOID="IT.QS.EPOCH" Mandatory="No" OrderNumber="26" Role="Timing"/>
                <ItemRef ItemOID="IT.QS.QSDTC" Mandatory="No" OrderNumber="27" Role="Timing"/>
                <ItemRef ItemOID="IT.QS.QSDY" Mandatory="No" OrderNumber="28" Role="Timing"/>
                <ItemRef ItemOID="IT.QS.QSTPT" Mandatory="No" OrderNumber="29" Role="Timing"/>
                <ItemRef ItemOID="IT.QS.QSTPTNUM" Mandatory="No" OrderNumber="30" Role="Timing"/>
                <ItemRef ItemOID="IT.QS.QSELTM" Mandatory="No" OrderNumber="31" Role="Timing"/>
                <ItemRef ItemOID="IT.QS.QSTPTREF" Mandatory="No" OrderNumber="32" Role="Timing"/>
                <ItemRef ItemOID="IT.QS.QSRFTDTC" Mandatory="No" OrderNumber="33" Role="Timing"/>
                <ItemRef ItemOID="IT.QS.QSEVLINT" Mandatory="No" OrderNumber="34" Role="Timing"/>
                <ItemRef ItemOID="IT.QS.QSEVINTX" Mandatory="No" OrderNumber="35" Role="Timing"/>
                <def:Class Name="FINDINGS"/>
            </ItemGroupDef>
            <ItemGroupDef Domain="RE" Name="RE" OID="IGD.RE" Purpose="Tabulation" Repeating="No"
                def:Structure="One record per finding or result per time point per visit per subject">
                <Description>
                    <TranslatedText xml:lang="en">Respiratory System Findings</TranslatedText>
                </Description>
                <ItemRef ItemOID="IT.RE.STUDYID" Mandatory="No" OrderNumber="1" Role="Identifier"/>
                <ItemRef ItemOID="IT.RE.DOMAIN" Mandatory="No" OrderNumber="2" Role="Identifier"/>
                <ItemRef ItemOID="IT.RE.USUBJID" Mandatory="No" OrderNumber="3" Role="Identifier"/>
                <ItemRef ItemOID="IT.RE.SPDEVID" Mandatory="No" OrderNumber="4" Role="Identifier"/>
                <ItemRef ItemOID="IT.RE.RESEQ" Mandatory="No" OrderNumber="5" Role="Identifier"/>
                <ItemRef ItemOID="IT.RE.REGRPID" Mandatory="No" OrderNumber="6" Role="Identifier"/>
                <ItemRef ItemOID="IT.RE.REREFID" Mandatory="No" OrderNumber="7" Role="Identifier"/>
                <ItemRef ItemOID="IT.RE.RESPID" Mandatory="No" OrderNumber="8" Role="Identifier"/>
                <ItemRef ItemOID="IT.RE.RELNKID" Mandatory="No" OrderNumber="9" Role="Identifier"/>
                <ItemRef ItemOID="IT.RE.RELNKGRP" Mandatory="No" OrderNumber="10" Role="Identifier"/>
                <ItemRef ItemOID="IT.RE.RETESTCD" Mandatory="No" OrderNumber="11" Role="Topic"/>
                <ItemRef ItemOID="IT.RE.RETEST" Mandatory="No" OrderNumber="12"
                    Role="Synonym Qualifier"/>
                <ItemRef ItemOID="IT.RE.RECAT" Mandatory="No" OrderNumber="13"
                    Role="Grouping Qualifier"/>
                <ItemRef ItemOID="IT.RE.RESCAT" Mandatory="No" OrderNumber="14"
                    Role="Grouping Qualifier"/>
                <ItemRef ItemOID="IT.RE.REPOS" Mandatory="No" OrderNumber="15"
                    Role="Record Qualifier"/>
                <ItemRef ItemOID="IT.RE.REORRES" Mandatory="No" OrderNumber="16"
                    Role="Result Qualifier"/>
                <ItemRef ItemOID="IT.RE.REORRESU" Mandatory="No" OrderNumber="17"
                    Role="Variable Qualifier"/>
                <ItemRef ItemOID="IT.RE.REORREF" Mandatory="No" OrderNumber="18"
                    Role="Variable Qualifier"/>
                <ItemRef ItemOID="IT.RE.RESTRESC" Mandatory="No" OrderNumber="19"
                    Role="Result Qualifier"/>
                <ItemRef ItemOID="IT.RE.RESTRESN" Mandatory="No" OrderNumber="20"
                    Role="Result Qualifier"/>
                <ItemRef ItemOID="IT.RE.RESTRESU" Mandatory="No" OrderNumber="21"
                    Role="Variable Qualifier"/>
                <ItemRef ItemOID="IT.RE.RESTREFC" Mandatory="No" OrderNumber="22"
                    Role="Variable Qualifier"/>
                <ItemRef ItemOID="IT.RE.RESTREFN" Mandatory="No" OrderNumber="23"
                    Role="Variable Qualifier"/>
                <ItemRef ItemOID="IT.RE.RESTAT" Mandatory="No" OrderNumber="24"
                    Role="Record Qualifier"/>
                <ItemRef ItemOID="IT.RE.REREASND" Mandatory="No" OrderNumber="25"
                    Role="Record Qualifier"/>
                <ItemRef ItemOID="IT.RE.RELOC" Mandatory="No" OrderNumber="26"
                    Role="Record Qualifier"/>
                <ItemRef ItemOID="IT.RE.RELAT" Mandatory="No" OrderNumber="27"
                    Role="Variable Qualifier"/>
                <ItemRef ItemOID="IT.RE.REDIR" Mandatory="No" OrderNumber="28"
                    Role="Variable Qualifier"/>
                <ItemRef ItemOID="IT.RE.REMETHOD" Mandatory="No" OrderNumber="29"
                    Role="Record Qualifier"/>
                <ItemRef ItemOID="IT.RE.RELOBXFL" Mandatory="No" OrderNumber="30"
                    Role="Record Qualifier"/>
                <ItemRef ItemOID="IT.RE.REBLFL" Mandatory="No" OrderNumber="31"
                    Role="Record Qualifier"/>
                <ItemRef ItemOID="IT.RE.REDRVFL" Mandatory="No" OrderNumber="32"
                    Role="Record Qualifier"/>
                <ItemRef ItemOID="IT.RE.REEVAL" Mandatory="No" OrderNumber="33"
                    Role="Record Qualifier"/>
                <ItemRef ItemOID="IT.RE.REEVALID" Mandatory="No" OrderNumber="34"
                    Role="Variable Qualifier"/>
                <ItemRef ItemOID="IT.RE.REREPNUM" Mandatory="No" OrderNumber="35"
                    Role="Record Qualifier"/>
                <ItemRef ItemOID="IT.RE.VISITNUM" Mandatory="No" OrderNumber="36" Role="Timing"/>
                <ItemRef ItemOID="IT.RE.VISIT" Mandatory="No" OrderNumber="37" Role="Timing"/>
                <ItemRef ItemOID="IT.RE.VISITDY" Mandatory="No" OrderNumber="38" Role="Timing"/>
                <ItemRef ItemOID="IT.RE.TAETORD" Mandatory="No" OrderNumber="39" Role="Timing"/>
                <ItemRef ItemOID="IT.RE.EPOCH" Mandatory="No" OrderNumber="40" Role="Timing"/>
                <ItemRef ItemOID="IT.RE.REDTC" Mandatory="No" OrderNumber="41" Role="Timing"/>
                <ItemRef ItemOID="IT.RE.REDY" Mandatory="No" OrderNumber="42" Role="Timing"/>
                <ItemRef ItemOID="IT.RE.RETPT" Mandatory="No" OrderNumber="43" Role="Timing"/>
                <ItemRef ItemOID="IT.RE.RETPTNUM" Mandatory="No" OrderNumber="44" Role="Timing"/>
                <ItemRef ItemOID="IT.RE.REELTM" Mandatory="No" OrderNumber="45" Role="Timing"/>
                <ItemRef ItemOID="IT.RE.RETPTREF" Mandatory="No" OrderNumber="46" Role="Timing"/>
                <ItemRef ItemOID="IT.RE.RERFTDTC" Mandatory="No" OrderNumber="47" Role="Timing"/>
                <def:Class Name="FINDINGS"/>
            </ItemGroupDef>
            <ItemGroupDef Domain="RP" Name="RP" OID="IGD.RP" Purpose="Tabulation" Repeating="No"
                def:Structure="One record per finding or result per time point per visit per subject">
                <Description>
                    <TranslatedText xml:lang="en">Reproductive System Findings</TranslatedText>
                </Description>
                <ItemRef ItemOID="IT.RP.STUDYID" Mandatory="No" OrderNumber="1" Role="Identifier"/>
                <ItemRef ItemOID="IT.RP.DOMAIN" Mandatory="No" OrderNumber="2" Role="Identifier"/>
                <ItemRef ItemOID="IT.RP.USUBJID" Mandatory="No" OrderNumber="3" Role="Identifier"/>
                <ItemRef ItemOID="IT.RP.RPSEQ" Mandatory="No" OrderNumber="4" Role="Identifier"/>
                <ItemRef ItemOID="IT.RP.RPGRPID" Mandatory="No" OrderNumber="5" Role="Identifier"/>
                <ItemRef ItemOID="IT.RP.RPREFID" Mandatory="No" OrderNumber="6" Role="Identifier"/>
                <ItemRef ItemOID="IT.RP.RPSPID" Mandatory="No" OrderNumber="7" Role="Identifier"/>
                <ItemRef ItemOID="IT.RP.RPLNKID" Mandatory="No" OrderNumber="8" Role="Identifier"/>
                <ItemRef ItemOID="IT.RP.RPLNKGRP" Mandatory="No" OrderNumber="9" Role="Identifier"/>
                <ItemRef ItemOID="IT.RP.RPTESTCD" Mandatory="No" OrderNumber="10" Role="Topic"/>
                <ItemRef ItemOID="IT.RP.RPTEST" Mandatory="No" OrderNumber="11"
                    Role="Synonym Qualifier"/>
                <ItemRef ItemOID="IT.RP.RPCAT" Mandatory="No" OrderNumber="12"
                    Role="Grouping Qualifier"/>
                <ItemRef ItemOID="IT.RP.RPSCAT" Mandatory="No" OrderNumber="13"
                    Role="Grouping Qualifier"/>
                <ItemRef ItemOID="IT.RP.RPORRES" Mandatory="No" OrderNumber="14"
                    Role="Result Qualifier"/>
                <ItemRef ItemOID="IT.RP.RPORRESU" Mandatory="No" OrderNumber="15"
                    Role="Variable Qualifier"/>
                <ItemRef ItemOID="IT.RP.RPSTRESC" Mandatory="No" OrderNumber="16"
                    Role="Result Qualifier"/>
                <ItemRef ItemOID="IT.RP.RPSTRESN" Mandatory="No" OrderNumber="17"
                    Role="Result Qualifier"/>
                <ItemRef ItemOID="IT.RP.RPSTRESU" Mandatory="No" OrderNumber="18"
                    Role="Variable Qualifier"/>
                <ItemRef ItemOID="IT.RP.RPSTAT" Mandatory="No" OrderNumber="19"
                    Role="Record Qualifier"/>
                <ItemRef ItemOID="IT.RP.RPREASND" Mandatory="No" OrderNumber="20"
                    Role="Record Qualifier"/>
                <ItemRef ItemOID="IT.RP.RPLOBXFL" Mandatory="No" OrderNumber="21"
                    Role="Record Qualifier"/>
                <ItemRef ItemOID="IT.RP.RPBLFL" Mandatory="No" OrderNumber="22"
                    Role="Record Qualifier"/>
                <ItemRef ItemOID="IT.RP.RPDRVFL" Mandatory="No" OrderNumber="23"
                    Role="Record Qualifier"/>
                <ItemRef ItemOID="IT.RP.VISITNUM" Mandatory="No" OrderNumber="24" Role="Timing"/>
                <ItemRef ItemOID="IT.RP.VISIT" Mandatory="No" OrderNumber="25" Role="Timing"/>
                <ItemRef ItemOID="IT.RP.VISITDY" Mandatory="No" OrderNumber="26" Role="Timing"/>
                <ItemRef ItemOID="IT.RP.TAETORD" Mandatory="No" OrderNumber="27" Role="Timing"/>
                <ItemRef ItemOID="IT.RP.EPOCH" Mandatory="No" OrderNumber="28" Role="Timing"/>
                <ItemRef ItemOID="IT.RP.RPDTC" Mandatory="No" OrderNumber="29" Role="Timing"/>
                <ItemRef ItemOID="IT.RP.RPDY" Mandatory="No" OrderNumber="30" Role="Timing"/>
                <ItemRef ItemOID="IT.RP.RPDUR" Mandatory="No" OrderNumber="31" Role="Timing"/>
                <ItemRef ItemOID="IT.RP.RPTPT" Mandatory="No" OrderNumber="32" Role="Timing"/>
                <ItemRef ItemOID="IT.RP.RPTPTNUM" Mandatory="No" OrderNumber="33" Role="Timing"/>
                <ItemRef ItemOID="IT.RP.RPELTM" Mandatory="No" OrderNumber="34" Role="Timing"/>
                <ItemRef ItemOID="IT.RP.RPTPTREF" Mandatory="No" OrderNumber="35" Role="Timing"/>
                <ItemRef ItemOID="IT.RP.RPRFTDTC" Mandatory="No" OrderNumber="36" Role="Timing"/>
                <def:Class Name="FINDINGS"/>
            </ItemGroupDef>
            <ItemGroupDef Domain="RS" Name="RS" OID="IGD.RS" Purpose="Tabulation" Repeating="No"
                def:Structure="One record per response assessment or clinical classification assessment per time point per visit per subject per assessor per medical evaluator">
                <Description>
                    <TranslatedText xml:lang="en">Disease Response and Clin
                        Classification</TranslatedText>
                </Description>
                <ItemRef ItemOID="IT.RS.STUDYID" Mandatory="No" OrderNumber="1" Role="Identifier"/>
                <ItemRef ItemOID="IT.RS.DOMAIN" Mandatory="No" OrderNumber="2" Role="Identifier"/>
                <ItemRef ItemOID="IT.RS.USUBJID" Mandatory="No" OrderNumber="3" Role="Identifier"/>
                <ItemRef ItemOID="IT.RS.RSSEQ" Mandatory="No" OrderNumber="4" Role="Identifier"/>
                <ItemRef ItemOID="IT.RS.RSGRPID" Mandatory="No" OrderNumber="5" Role="Identifier"/>
                <ItemRef ItemOID="IT.RS.RSREFID" Mandatory="No" OrderNumber="6" Role="Identifier"/>
                <ItemRef ItemOID="IT.RS.RSSPID" Mandatory="No" OrderNumber="7" Role="Identifier"/>
                <ItemRef ItemOID="IT.RS.RSLNKID" Mandatory="No" OrderNumber="8" Role="Identifier"/>
                <ItemRef ItemOID="IT.RS.RSLNKGRP" Mandatory="No" OrderNumber="9" Role="Identifier"/>
                <ItemRef ItemOID="IT.RS.RSTESTCD" Mandatory="No" OrderNumber="10" Role="Topic"/>
                <ItemRef ItemOID="IT.RS.RSTEST" Mandatory="No" OrderNumber="11"
                    Role="Synonym Qualifier"/>
                <ItemRef ItemOID="IT.RS.RSCAT" Mandatory="No" OrderNumber="12"
                    Role="Grouping Qualifier"/>
                <ItemRef ItemOID="IT.RS.RSSCAT" Mandatory="No" OrderNumber="13"
                    Role="Grouping Qualifier"/>
                <ItemRef ItemOID="IT.RS.RSORRES" Mandatory="No" OrderNumber="14"
                    Role="Result Qualifier"/>
                <ItemRef ItemOID="IT.RS.RSORRESU" Mandatory="No" OrderNumber="15"
                    Role="Variable Qualifier"/>
                <ItemRef ItemOID="IT.RS.RSSTRESC" Mandatory="No" OrderNumber="16"
                    Role="Result Qualifier"/>
                <ItemRef ItemOID="IT.RS.RSSTRESN" Mandatory="No" OrderNumber="17"
                    Role="Result Qualifier"/>
                <ItemRef ItemOID="IT.RS.RSSTRESU" Mandatory="No" OrderNumber="18"
                    Role="Variable Qualifier"/>
                <ItemRef ItemOID="IT.RS.RSSTAT" Mandatory="No" OrderNumber="19"
                    Role="Record Qualifier"/>
                <ItemRef ItemOID="IT.RS.RSREASND" Mandatory="No" OrderNumber="20"
                    Role="Record Qualifier"/>
                <ItemRef ItemOID="IT.RS.RSNAM" Mandatory="No" OrderNumber="21"
                    Role="Record Qualifier"/>
                <ItemRef ItemOID="IT.RS.RSMETHOD" Mandatory="No" OrderNumber="22"
                    Role="Record Qualifier"/>
                <ItemRef ItemOID="IT.RS.RSLOBXFL" Mandatory="No" OrderNumber="23"
                    Role="Record Qualifier"/>
                <ItemRef ItemOID="IT.RS.RSBLFL" Mandatory="No" OrderNumber="24"
                    Role="Record Qualifier"/>
                <ItemRef ItemOID="IT.RS.RSDRVFL" Mandatory="No" OrderNumber="25"
                    Role="Record Qualifier"/>
                <ItemRef ItemOID="IT.RS.RSEVAL" Mandatory="No" OrderNumber="26"
                    Role="Record Qualifier"/>
                <ItemRef ItemOID="IT.RS.RSEVALID" Mandatory="No" OrderNumber="27"
                    Role="Variable Qualifier"/>
                <ItemRef ItemOID="IT.RS.RSACPTFL" Mandatory="No" OrderNumber="28"
                    Role="Record Qualifier"/>
                <ItemRef ItemOID="IT.RS.VISITNUM" Mandatory="No" OrderNumber="29" Role="Timing"/>
                <ItemRef ItemOID="IT.RS.VISIT" Mandatory="No" OrderNumber="30" Role="Timing"/>
                <ItemRef ItemOID="IT.RS.VISITDY" Mandatory="No" OrderNumber="31" Role="Timing"/>
                <ItemRef ItemOID="IT.RS.TAETORD" Mandatory="No" OrderNumber="32" Role="Timing"/>
                <ItemRef ItemOID="IT.RS.EPOCH" Mandatory="No" OrderNumber="33" Role="Timing"/>
                <ItemRef ItemOID="IT.RS.RSDTC" Mandatory="No" OrderNumber="34" Role="Timing"/>
                <ItemRef ItemOID="IT.RS.RSDY" Mandatory="No" OrderNumber="35" Role="Timing"/>
                <ItemRef ItemOID="IT.RS.RSTPT" Mandatory="No" OrderNumber="36" Role="Timing"/>
                <ItemRef ItemOID="IT.RS.RSTPTNUM" Mandatory="No" OrderNumber="37" Role="Timing"/>
                <ItemRef ItemOID="IT.RS.RSELTM" Mandatory="No" OrderNumber="38" Role="Timing"/>
                <ItemRef ItemOID="IT.RS.RSTPTREF" Mandatory="No" OrderNumber="39" Role="Timing"/>
                <ItemRef ItemOID="IT.RS.RSRFTDTC" Mandatory="No" OrderNumber="40" Role="Timing"/>
                <ItemRef ItemOID="IT.RS.RSEVLINT" Mandatory="No" OrderNumber="41" Role="Timing"/>
                <ItemRef ItemOID="IT.RS.RSEVINTX" Mandatory="No" OrderNumber="42" Role="Timing"/>
                <ItemRef ItemOID="IT.RS.RSSTRTPT" Mandatory="No" OrderNumber="43" Role="Timing"/>
                <ItemRef ItemOID="IT.RS.RSSTTPT" Mandatory="No" OrderNumber="44" Role="Timing"/>
                <ItemRef ItemOID="IT.RS.RSENRTPT" Mandatory="No" OrderNumber="45" Role="Timing"/>
                <ItemRef ItemOID="IT.RS.RSENTPT" Mandatory="No" OrderNumber="46" Role="Timing"/>
                <def:Class Name="FINDINGS"/>
            </ItemGroupDef>
            <ItemGroupDef Domain="SC" Name="SC" OID="IGD.SC" Purpose="Tabulation" Repeating="No"
                def:Structure="One record per characteristic per visit per subject.">
                <Description>
                    <TranslatedText xml:lang="en">Subject Characteristics</TranslatedText>
                </Description>
                <ItemRef ItemOID="IT.SC.STUDYID" Mandatory="No" OrderNumber="1" Role="Identifier"/>
                <ItemRef ItemOID="IT.SC.DOMAIN" Mandatory="No" OrderNumber="2" Role="Identifier"/>
                <ItemRef ItemOID="IT.SC.USUBJID" Mandatory="No" OrderNumber="3" Role="Identifier"/>
                <ItemRef ItemOID="IT.SC.SCSEQ" Mandatory="No" OrderNumber="4" Role="Identifier"/>
                <ItemRef ItemOID="IT.SC.SCGRPID" Mandatory="No" OrderNumber="5" Role="Identifier"/>
                <ItemRef ItemOID="IT.SC.SCSPID" Mandatory="No" OrderNumber="6" Role="Identifier"/>
                <ItemRef ItemOID="IT.SC.SCTESTCD" Mandatory="No" OrderNumber="7" Role="Topic"/>
                <ItemRef ItemOID="IT.SC.SCTEST" Mandatory="No" OrderNumber="8"
                    Role="Synonym Qualifier"/>
                <ItemRef ItemOID="IT.SC.SCCAT" Mandatory="No" OrderNumber="9"
                    Role="Grouping Qualifier"/>
                <ItemRef ItemOID="IT.SC.SCSCAT" Mandatory="No" OrderNumber="10"
                    Role="Grouping Qualifier"/>
                <ItemRef ItemOID="IT.SC.SCORRES" Mandatory="No" OrderNumber="11"
                    Role="Result Qualifier"/>
                <ItemRef ItemOID="IT.SC.SCORRESU" Mandatory="No" OrderNumber="12"
                    Role="Variable Qualifier"/>
                <ItemRef ItemOID="IT.SC.SCSTRESC" Mandatory="No" OrderNumber="13"
                    Role="Result Qualifier"/>
                <ItemRef ItemOID="IT.SC.SCSTRESN" Mandatory="No" OrderNumber="14"
                    Role="Result Qualifier"/>
                <ItemRef ItemOID="IT.SC.SCSTRESU" Mandatory="No" OrderNumber="15"
                    Role="Variable Qualifier"/>
                <ItemRef ItemOID="IT.SC.SCSTAT" Mandatory="No" OrderNumber="16"
                    Role="Record Qualifier"/>
                <ItemRef ItemOID="IT.SC.SCREASND" Mandatory="No" OrderNumber="17"
                    Role="Record Qualifier"/>
                <ItemRef ItemOID="IT.SC.VISITNUM" Mandatory="No" OrderNumber="18" Role="Timing"/>
                <ItemRef ItemOID="IT.SC.VISIT" Mandatory="No" OrderNumber="19" Role="Timing"/>
                <ItemRef ItemOID="IT.SC.VISITDY" Mandatory="No" OrderNumber="20" Role="Timing"/>
                <ItemRef ItemOID="IT.SC.TAETORD" Mandatory="No" OrderNumber="21" Role="Timing"/>
                <ItemRef ItemOID="IT.SC.EPOCH" Mandatory="No" OrderNumber="22" Role="Timing"/>
                <ItemRef ItemOID="IT.SC.SCDTC" Mandatory="No" OrderNumber="23" Role="Timing"/>
                <ItemRef ItemOID="IT.SC.SCDY" Mandatory="No" OrderNumber="24" Role="Timing"/>
                <def:Class Name="FINDINGS"/>
            </ItemGroupDef>
            <ItemGroupDef Domain="SS" Name="SS" OID="IGD.SS" Purpose="Tabulation" Repeating="No"
                def:Structure="One record per status per visit per subject">
                <Description>
                    <TranslatedText xml:lang="en">Subject Status</TranslatedText>
                </Description>
                <ItemRef ItemOID="IT.SS.STUDYID" Mandatory="No" OrderNumber="1" Role="Identifier"/>
                <ItemRef ItemOID="IT.SS.DOMAIN" Mandatory="No" OrderNumber="2" Role="Identifier"/>
                <ItemRef ItemOID="IT.SS.USUBJID" Mandatory="No" OrderNumber="3" Role="Identifier"/>
                <ItemRef ItemOID="IT.SS.SSSEQ" Mandatory="No" OrderNumber="4" Role="Identifier"/>
                <ItemRef ItemOID="IT.SS.SSGRPID" Mandatory="No" OrderNumber="5" Role="Identifier"/>
                <ItemRef ItemOID="IT.SS.SSSPID" Mandatory="No" OrderNumber="6" Role="Identifier"/>
                <ItemRef ItemOID="IT.SS.SSTESTCD" Mandatory="No" OrderNumber="7" Role="Topic"/>
                <ItemRef ItemOID="IT.SS.SSTEST" Mandatory="No" OrderNumber="8"
                    Role="Synonym Qualifier"/>
                <ItemRef ItemOID="IT.SS.SSCAT" Mandatory="No" OrderNumber="9"
                    Role="Grouping Qualifier"/>
                <ItemRef ItemOID="IT.SS.SSSCAT" Mandatory="No" OrderNumber="10"
                    Role="Grouping Qualifier"/>
                <ItemRef ItemOID="IT.SS.SSORRES" Mandatory="No" OrderNumber="11"
                    Role="Result Qualifier"/>
                <ItemRef ItemOID="IT.SS.SSSTRESC" Mandatory="No" OrderNumber="12"
                    Role="Result Qualifier"/>
                <ItemRef ItemOID="IT.SS.SSSTAT" Mandatory="No" OrderNumber="13"
                    Role="Record Qualifier"/>
                <ItemRef ItemOID="IT.SS.SSREASND" Mandatory="No" OrderNumber="14"
                    Role="Record Qualifier"/>
                <ItemRef ItemOID="IT.SS.SSEVAL" Mandatory="No" OrderNumber="15"
                    Role="Record Qualifier"/>
                <ItemRef ItemOID="IT.SS.VISITNUM" Mandatory="No" OrderNumber="16" Role="Timing"/>
                <ItemRef ItemOID="IT.SS.VISIT" Mandatory="No" OrderNumber="17" Role="Timing"/>
                <ItemRef ItemOID="IT.SS.VISITDY" Mandatory="No" OrderNumber="18" Role="Timing"/>
                <ItemRef ItemOID="IT.SS.TAETORD" Mandatory="No" OrderNumber="19" Role="Timing"/>
                <ItemRef ItemOID="IT.SS.EPOCH" Mandatory="No" OrderNumber="20" Role="Timing"/>
                <ItemRef ItemOID="IT.SS.SSDTC" Mandatory="No" OrderNumber="21" Role="Timing"/>
                <ItemRef ItemOID="IT.SS.SSDY" Mandatory="No" OrderNumber="22" Role="Timing"/>
                <def:Class Name="FINDINGS"/>
            </ItemGroupDef>
            <ItemGroupDef Domain="TR" Name="TR" OID="IGD.TR" Purpose="Tabulation" Repeating="No"
                def:Structure="One record per tumor measurement/assessment per visit per subject per assessor">
                <Description>
                    <TranslatedText xml:lang="en">Tumor/Lesion Results</TranslatedText>
                </Description>
                <ItemRef ItemOID="IT.TR.STUDYID" Mandatory="No" OrderNumber="1" Role="Identifier"/>
                <ItemRef ItemOID="IT.TR.DOMAIN" Mandatory="No" OrderNumber="2" Role="Identifier"/>
                <ItemRef ItemOID="IT.TR.USUBJID" Mandatory="No" OrderNumber="3" Role="Identifier"/>
                <ItemRef ItemOID="IT.TR.TRSEQ" Mandatory="No" OrderNumber="4" Role="Identifier"/>
                <ItemRef ItemOID="IT.TR.TRGRPID" Mandatory="No" OrderNumber="5" Role="Identifier"/>
                <ItemRef ItemOID="IT.TR.TRREFID" Mandatory="No" OrderNumber="6" Role="Identifier"/>
                <ItemRef ItemOID="IT.TR.TRSPID" Mandatory="No" OrderNumber="7" Role="Identifier"/>
                <ItemRef ItemOID="IT.TR.TRLNKID" Mandatory="No" OrderNumber="8" Role="Identifier"/>
                <ItemRef ItemOID="IT.TR.TRLNKGRP" Mandatory="No" OrderNumber="9" Role="Identifier"/>
                <ItemRef ItemOID="IT.TR.TRTESTCD" Mandatory="No" OrderNumber="10" Role="Topic"/>
                <ItemRef ItemOID="IT.TR.TRTEST" Mandatory="No" OrderNumber="11"
                    Role="Synonym Qualifier"/>
                <ItemRef ItemOID="IT.TR.TRORRES" Mandatory="No" OrderNumber="12"
                    Role="Result Qualifier"/>
                <ItemRef ItemOID="IT.TR.TRORRESU" Mandatory="No" OrderNumber="13"
                    Role="Variable Qualifier"/>
                <ItemRef ItemOID="IT.TR.TRSTRESC" Mandatory="No" OrderNumber="14"
                    Role="Result Qualifier"/>
                <ItemRef ItemOID="IT.TR.TRSTRESN" Mandatory="No" OrderNumber="15"
                    Role="Result Qualifier"/>
                <ItemRef ItemOID="IT.TR.TRSTRESU" Mandatory="No" OrderNumber="16"
                    Role="Variable Qualifier"/>
                <ItemRef ItemOID="IT.TR.TRSTAT" Mandatory="No" OrderNumber="17"
                    Role="Record Qualifier"/>
                <ItemRef ItemOID="IT.TR.TRREASND" Mandatory="No" OrderNumber="18"
                    Role="Record Qualifier"/>
                <ItemRef ItemOID="IT.TR.TRNAM" Mandatory="No" OrderNumber="19"
                    Role="Record Qualifier"/>
                <ItemRef ItemOID="IT.TR.TRMETHOD" Mandatory="No" OrderNumber="20"
                    Role="Record Qualifier"/>
                <ItemRef ItemOID="IT.TR.TRLOBXFL" Mandatory="No" OrderNumber="21"
                    Role="Record Qualifier"/>
                <ItemRef ItemOID="IT.TR.TRBLFL" Mandatory="No" OrderNumber="22"
                    Role="Record Qualifier"/>
                <ItemRef ItemOID="IT.TR.TREVAL" Mandatory="No" OrderNumber="23"
                    Role="Record Qualifier"/>
                <ItemRef ItemOID="IT.TR.TREVALID" Mandatory="No" OrderNumber="24"
                    Role="Variable Qualifier"/>
                <ItemRef ItemOID="IT.TR.TRACPTFL" Mandatory="No" OrderNumber="25"
                    Role="Record Qualifier"/>
                <ItemRef ItemOID="IT.TR.VISITNUM" Mandatory="No" OrderNumber="26" Role="Timing"/>
                <ItemRef ItemOID="IT.TR.VISIT" Mandatory="No" OrderNumber="27" Role="Timing"/>
                <ItemRef ItemOID="IT.TR.VISITDY" Mandatory="No" OrderNumber="28" Role="Timing"/>
                <ItemRef ItemOID="IT.TR.TAETORD" Mandatory="No" OrderNumber="29" Role="Timing"/>
                <ItemRef ItemOID="IT.TR.EPOCH" Mandatory="No" OrderNumber="30" Role="Timing"/>
                <ItemRef ItemOID="IT.TR.TRDTC" Mandatory="No" OrderNumber="31" Role="Timing"/>
                <ItemRef ItemOID="IT.TR.TRDY" Mandatory="No" OrderNumber="32" Role="Timing"/>
                <def:Class Name="FINDINGS"/>
            </ItemGroupDef>
            <ItemGroupDef Domain="TU" Name="TU" OID="IGD.TU" Purpose="Tabulation" Repeating="No"
                def:Structure="One record per identified tumor per subject per assessor">
                <Description>
                    <TranslatedText xml:lang="en">Tumor/Lesion Identification</TranslatedText>
                </Description>
                <ItemRef ItemOID="IT.TU.STUDYID" Mandatory="No" OrderNumber="1" Role="Identifier"/>
                <ItemRef ItemOID="IT.TU.DOMAIN" Mandatory="No" OrderNumber="2" Role="Identifier"/>
                <ItemRef ItemOID="IT.TU.USUBJID" Mandatory="No" OrderNumber="3" Role="Identifier"/>
                <ItemRef ItemOID="IT.TU.TUSEQ" Mandatory="No" OrderNumber="4" Role="Identifier"/>
                <ItemRef ItemOID="IT.TU.TUGRPID" Mandatory="No" OrderNumber="5" Role="Identifier"/>
                <ItemRef ItemOID="IT.TU.TUREFID" Mandatory="No" OrderNumber="6" Role="Identifier"/>
                <ItemRef ItemOID="IT.TU.TUSPID" Mandatory="No" OrderNumber="7" Role="Identifier"/>
                <ItemRef ItemOID="IT.TU.TULNKID" Mandatory="No" OrderNumber="8" Role="Identifier"/>
                <ItemRef ItemOID="IT.TU.TULNKGRP" Mandatory="No" OrderNumber="9" Role="Identifier"/>
                <ItemRef ItemOID="IT.TU.TUTESTCD" Mandatory="No" OrderNumber="10" Role="Topic"/>
                <ItemRef ItemOID="IT.TU.TUTEST" Mandatory="No" OrderNumber="11"
                    Role="Synonym Qualifier"/>
                <ItemRef ItemOID="IT.TU.TUORRES" Mandatory="No" OrderNumber="12"
                    Role="Result Qualifier"/>
                <ItemRef ItemOID="IT.TU.TUSTRESC" Mandatory="No" OrderNumber="13"
                    Role="Result Qualifier"/>
                <ItemRef ItemOID="IT.TU.TUNAM" Mandatory="No" OrderNumber="14"
                    Role="Record Qualifier"/>
                <ItemRef ItemOID="IT.TU.TULOC" Mandatory="No" OrderNumber="15"
                    Role="Record Qualifier"/>
                <ItemRef ItemOID="IT.TU.TULAT" Mandatory="No" OrderNumber="16"
                    Role="Variable Qualifier"/>
                <ItemRef ItemOID="IT.TU.TUDIR" Mandatory="No" OrderNumber="17"
                    Role="Variable Qualifier"/>
                <ItemRef ItemOID="IT.TU.TUPORTOT" Mandatory="No" OrderNumber="18"
                    Role="Variable Qualifier"/>
                <ItemRef ItemOID="IT.TU.TUMETHOD" Mandatory="No" OrderNumber="19"
                    Role="Record Qualifier"/>
                <ItemRef ItemOID="IT.TU.TULOBXFL" Mandatory="No" OrderNumber="20"
                    Role="Record Qualifier"/>
                <ItemRef ItemOID="IT.TU.TUBLFL" Mandatory="No" OrderNumber="21"
                    Role="Record Qualifier"/>
                <ItemRef ItemOID="IT.TU.TUEVAL" Mandatory="No" OrderNumber="22"
                    Role="Record Qualifier"/>
                <ItemRef ItemOID="IT.TU.TUEVALID" Mandatory="No" OrderNumber="23"
                    Role="Variable Qualifier"/>
                <ItemRef ItemOID="IT.TU.TUACPTFL" Mandatory="No" OrderNumber="24"
                    Role="Record Qualifier"/>
                <ItemRef ItemOID="IT.TU.VISITNUM" Mandatory="No" OrderNumber="25" Role="Timing"/>
                <ItemRef ItemOID="IT.TU.VISIT" Mandatory="No" OrderNumber="26" Role="Timing"/>
                <ItemRef ItemOID="IT.TU.VISITDY" Mandatory="No" OrderNumber="27" Role="Timing"/>
                <ItemRef ItemOID="IT.TU.TAETORD" Mandatory="No" OrderNumber="28" Role="Timing"/>
                <ItemRef ItemOID="IT.TU.EPOCH" Mandatory="No" OrderNumber="29" Role="Timing"/>
                <ItemRef ItemOID="IT.TU.TUDTC" Mandatory="No" OrderNumber="30" Role="Timing"/>
                <ItemRef ItemOID="IT.TU.TUDY" Mandatory="No" OrderNumber="31" Role="Timing"/>
                <def:Class Name="FINDINGS"/>
            </ItemGroupDef>
            <ItemGroupDef Domain="UR" Name="UR" OID="IGD.UR" Purpose="Tabulation" Repeating="No"
                def:Structure="One record per finding per location per per visit per subject">
                <Description>
                    <TranslatedText xml:lang="en">Urinary System Findings</TranslatedText>
                </Description>
                <ItemRef ItemOID="IT.UR.STUDYID" Mandatory="No" OrderNumber="1" Role="Identifier"/>
                <ItemRef ItemOID="IT.UR.DOMAIN" Mandatory="No" OrderNumber="2" Role="Identifier"/>
                <ItemRef ItemOID="IT.UR.USUBJID" Mandatory="No" OrderNumber="3" Role="Identifier"/>
                <ItemRef ItemOID="IT.UR.URSEQ" Mandatory="No" OrderNumber="4" Role="Identifier"/>
                <ItemRef ItemOID="IT.UR.URGRPID" Mandatory="No" OrderNumber="5" Role="Identifier"/>
                <ItemRef ItemOID="IT.UR.URREFID" Mandatory="No" OrderNumber="6" Role="Identifier"/>
                <ItemRef ItemOID="IT.UR.URSPID" Mandatory="No" OrderNumber="7" Role="Identifier"/>
                <ItemRef ItemOID="IT.UR.URLNKID" Mandatory="No" OrderNumber="8" Role="Identifier"/>
                <ItemRef ItemOID="IT.UR.URLNKGRP" Mandatory="No" OrderNumber="9" Role="Identifier"/>
                <ItemRef ItemOID="IT.UR.URTESTCD" Mandatory="No" OrderNumber="10" Role="Topic"/>
                <ItemRef ItemOID="IT.UR.URTEST" Mandatory="No" OrderNumber="11"
                    Role="Synonym Qualifier"/>
                <ItemRef ItemOID="IT.UR.URTSTDTL" Mandatory="No" OrderNumber="12"
                    Role="Variable Qualifier"/>
                <ItemRef ItemOID="IT.UR.URCAT" Mandatory="No" OrderNumber="13"
                    Role="Grouping Qualifier"/>
                <ItemRef ItemOID="IT.UR.URSCAT" Mandatory="No" OrderNumber="14"
                    Role="Grouping Qualifier"/>
                <ItemRef ItemOID="IT.UR.URORRES" Mandatory="No" OrderNumber="15"
                    Role="Result Qualifier"/>
                <ItemRef ItemOID="IT.UR.URORRESU" Mandatory="No" OrderNumber="16"
                    Role="Variable Qualifier"/>
                <ItemRef ItemOID="IT.UR.URSTRESC" Mandatory="No" OrderNumber="17"
                    Role="Result Qualifier"/>
                <ItemRef ItemOID="IT.UR.URSTRESN" Mandatory="No" OrderNumber="18"
                    Role="Result Qualifier"/>
                <ItemRef ItemOID="IT.UR.URSTRESU" Mandatory="No" OrderNumber="19"
                    Role="Variable Qualifier"/>
                <ItemRef ItemOID="IT.UR.URRESCAT" Mandatory="No" OrderNumber="20"
                    Role="Variable Qualifier"/>
                <ItemRef ItemOID="IT.UR.URSTAT" Mandatory="No" OrderNumber="21"
                    Role="Record Qualifier"/>
                <ItemRef ItemOID="IT.UR.URREASND" Mandatory="No" OrderNumber="22"
                    Role="Record Qualifier"/>
                <ItemRef ItemOID="IT.UR.URLOC" Mandatory="No" OrderNumber="23"
                    Role="Record Qualifier"/>
                <ItemRef ItemOID="IT.UR.URLAT" Mandatory="No" OrderNumber="24"
                    Role="Variable Qualifier"/>
