{"FileOID": "ODM.CDASHIGv2.2.2021-09-28", "Granularity": "Metadata", "AsOfDateTime": "2021-09-28T00:00:00+00:00", "CreationDateTime": "2026-05-01T14:53:54.348013+00:00", "ODMVersion": "1.3.2", "FileType": "Snapshot", "Originator": "CDISC LIBRARY", "SourceSystem": "cdisc_library_api", "SourceSystemVersion": "1.0", "LibraryXMLVersion": "1.0.0", "Study": [{"OID": "STUDY.CDASHIG.v2.2", "GlobalVariables": {"StudyName": {"_content": "CDASHIG v2.2"}, "StudyDescription": {"_content": "Clinical Data Acquisition Standards Harmonization Implementation Guide for Human Clinical Trials Version 2.2"}, "ProtocolName": {"_content": "CDISC Standard Publication"}}, "MetaDataVersion": {"OID": "MDV.CDASHIG.v2.2", "Name": "CDASHIG v2.2 Metadata", "Status": "Final", "DatePublished": "2021-09-28", "ItemGroupDef": [{"OID": "IGD.AG", "Name": "AG", "Domain": "AG", "Repeating": "No", "Purpose": "Data Collection", "Description": {"TranslatedText": [{"lang": "en", "_content": "Procedure Agents"}]}, "ItemRef": [{"ItemOID": "IT.AG.STUDYID", "OrderNumber": 1, "Mandatory": "No"}, {"ItemOID": "IT.AG.SITEID", "OrderNumber": 2, "Mandatory": "No"}, {"ItemOID": "IT.AG.SUBJID", "OrderNumber": 3, "Mandatory": "No"}, {"ItemOID": "IT.AG.AGCAT", "OrderNumber": 4, "Mandatory": "No"}, {"ItemOID": "IT.AG.AGSCAT", "OrderNumber": 5, "Mandatory": "No"}, {"ItemOID": "IT.AG.AGYN", "OrderNumber": 6, "Mandatory": "No"}, {"ItemOID": "IT.AG.AGSPID", "OrderNumber": 7, "Mandatory": "No"}, {"ItemOID": "IT.AG.AGTRT", "OrderNumber": 8, "Mandatory": "No"}, {"ItemOID": "IT.AG.AGPRESP", "OrderNumber": 9, "Mandatory": "No"}, {"ItemOID": "IT.AG.AGOCCUR", "OrderNumber": 10, "Mandatory": "No"}, {"ItemOID": "IT.AG.AGDOSE", "OrderNumber": 11, "Mandatory": "No"}, {"ItemOID": "IT.AG.AGDSTXT", "OrderNumber": 12, "Mandatory": "No"}, {"ItemOID": "IT.AG.AGDOSU", "OrderNumber": 13, "Mandatory": "No"}, {"ItemOID": "IT.AG.AGDOSFRM", "OrderNumber": 14, "Mandatory": "No"}, {"ItemOID": "IT.AG.AGDOSFRQ", "OrderNumber": 15, "Mandatory": "No"}, {"ItemOID": "IT.AG.AGROUTE", "OrderNumber": 16, "Mandatory": "No"}, {"ItemOID": "IT.AG.AGSTDAT", "OrderNumber": 17, "Mandatory": "No"}, {"ItemOID": "IT.AG.AGSTTIM", "OrderNumber": 18, "Mandatory": "No"}, {"ItemOID": "IT.AG.AGPRIOR", "OrderNumber": 19, "Mandatory": "No"}, {"ItemOID": "IT.AG.AGONGO", "OrderNumber": 20, "Mandatory": "No"}, {"ItemOID": "IT.AG.AGENDAT", "OrderNumber": 21, "Mandatory": "No"}, {"ItemOID": "IT.AG.AGENTIM", "OrderNumber": 22, "Mandatory": "No"}, {"ItemOID": "IT.AG.AGDECOD", "OrderNumber": 23, "Mandatory": "No"}, {"ItemOID": "IT.AG.AGCLAS", "OrderNumber": 24, "Mandatory": "No"}, {"ItemOID": "IT.AG.AGCLASCD", "OrderNumber": 25, "Mandatory": "No"}], "Class": {"Name": "INTERVENTIONS"}}, {"OID": "IGD.CM", "Name": "CM", "Domain": "CM", "Repeating": "No", "Purpose": "Data Collection", "Description": {"TranslatedText": [{"lang": "en", "_content": "Concomitant/Prior Medications"}]}, "ItemRef": [{"ItemOID": "IT.CM.STUDYID", "OrderNumber": 1, "Mandatory": "No"}, {"ItemOID": "IT.CM.SITEID", "OrderNumber": 2, "Mandatory": "No"}, {"ItemOID": "IT.CM.SUBJID", "OrderNumber": 3, "Mandatory": "No"}, {"ItemOID": "IT.CM.CMCAT", "OrderNumber": 4, "Mandatory": "No"}, {"ItemOID": "IT.CM.CMSCAT", "OrderNumber": 5, "Mandatory": "No"}, {"ItemOID": "IT.CM.CMYN", "OrderNumber": 6, "Mandatory": "No"}, {"ItemOID": "IT.CM.CMSPID", "OrderNumber": 7, "Mandatory": "No"}, {"ItemOID": "IT.CM.CMTRT", "OrderNumber": 8, "Mandatory": "No"}, {"ItemOID": "IT.CM.CMPRESP", "OrderNumber": 9, "Mandatory": "No"}, {"ItemOID": "IT.CM.CMOCCUR", "OrderNumber": 10, "Mandatory": "No"}, {"ItemOID": "IT.CM.CMINGRD", "OrderNumber": 11, "Mandatory": "No"}, {"ItemOID": "IT.CM.CMINDC", "OrderNumber": 12, "Mandatory": "No"}, {"ItemOID": "IT.CM.CMAENO", "OrderNumber": 13, "Mandatory": "No"}, {"ItemOID": "IT.CM.CMMHNO", "OrderNumber": 14, "Mandatory": "No"}, {"ItemOID": "IT.CM.CMDOSE", "OrderNumber": 15, "Mandatory": "No"}, {"ItemOID": "IT.CM.CMDSTXT", "OrderNumber": 16, "Mandatory": "No"}, {"ItemOID": "IT.CM.CMDOSTOT", "OrderNumber": 17, "Mandatory": "No"}, {"ItemOID": "IT.CM.CMDOSU", "OrderNumber": 18, "Mandatory": "No"}, {"ItemOID": "IT.CM.CMDOSFRM", "OrderNumber": 19, "Mandatory": "No"}, {"ItemOID": "IT.CM.CMDOSFRQ", "OrderNumber": 20, "Mandatory": "No"}, {"ItemOID": "IT.CM.CMROUTE", "OrderNumber": 21, "Mandatory": "No"}, {"ItemOID": "IT.CM.CMSTDAT", "OrderNumber": 22, "Mandatory": "No"}, {"ItemOID": "IT.CM.CMSTTIM", "OrderNumber": 23, "Mandatory": "No"}, {"ItemOID": "IT.CM.CMPRIOR", "OrderNumber": 24, "Mandatory": "No"}, {"ItemOID": "IT.CM.CMONGO", "OrderNumber": 25, "Mandatory": "No"}, {"ItemOID": "IT.CM.CMENDAT", "OrderNumber": 26, "Mandatory": "No"}, {"ItemOID": "IT.CM.CMENTIM", "OrderNumber": 27, "Mandatory": "No"}, {"ItemOID": "IT.CM.CMRSDISC", "OrderNumber": 28, "Mandatory": "No"}, {"ItemOID": "IT.CM.CMDECOD", "OrderNumber": 29, "Mandatory": "No"}, {"ItemOID": "IT.CM.CMCLAS", "OrderNumber": 30, "Mandatory": "No"}, {"ItemOID": "IT.CM.CMCLASCD", "OrderNumber": 31, "Mandatory": "No"}, {"ItemOID": "IT.CM.CMATC1", "OrderNumber": 32, "Mandatory": "No"}, {"ItemOID": "IT.CM.CMATC1CD", "OrderNumber": 33, "Mandatory": "No"}, {"ItemOID": "IT.CM.CMATC2", "OrderNumber": 34, "Mandatory": "No"}, {"ItemOID": "IT.CM.CMATC2CD", "OrderNumber": 35, "Mandatory": "No"}, {"ItemOID": "IT.CM.CMATC3", "OrderNumber": 36, "Mandatory": "No"}, {"ItemOID": "IT.CM.CMATC3CD", "OrderNumber": 37, "Mandatory": "No"}, {"ItemOID": "IT.CM.CMATC4", "OrderNumber": 38, "Mandatory": "No"}, {"ItemOID": "IT.CM.CMATC4CD", "OrderNumber": 39, "Mandatory": "No"}, {"ItemOID": "IT.CM.CMATC5", "OrderNumber": 40, "Mandatory": "No"}, {"ItemOID": "IT.CM.CMATC5CD", "OrderNumber": 41, "Mandatory": "No"}], "Class": {"Name": "INTERVENTIONS"}}, {"OID": "IGD.EC", "Name": "EC", "Domain": "EC", "Repeating": "No", "Purpose": "Data Collection", "Description": {"TranslatedText": [{"lang": "en", "_content": "Exposure as Collected"}]}, "ItemRef": [{"ItemOID": "IT.EC.STUDYID", "OrderNumber": 1, "Mandatory": "No"}, {"ItemOID": "IT.EC.SITEID", "OrderNumber": 2, "Mandatory": "No"}, {"ItemOID": "IT.EC.SUBJID", "OrderNumber": 3, "Mandatory": "No"}, {"ItemOID": "IT.EC.EPOCH", "OrderNumber": 4, "Mandatory": "No"}, {"ItemOID": "IT.EC.ECYN", "OrderNumber": 5, "Mandatory": "No"}, {"ItemOID": "IT.EC.ECCAT", "OrderNumber": 6, "Mandatory": "No"}, {"ItemOID": "IT.EC.ECSCAT", "OrderNumber": 7, "Mandatory": "No"}, {"ItemOID": "IT.EC.ECTRT", "OrderNumber": 8, "Mandatory": "No"}, {"ItemOID": "IT.EC.ECPRESP", "OrderNumber": 9, "Mandatory": "No"}, {"ItemOID": "IT.EC.ECOCCUR", "OrderNumber": 10, "Mandatory": "No"}, {"ItemOID": "IT.EC.ECREASOC", "OrderNumber": 11, "Mandatory": "No"}, {"ItemOID": "IT.EC.ECMOOD", "OrderNumber": 12, "Mandatory": "No"}, {"ItemOID": "IT.EC.ECREFID", "OrderNumber": 13, "Mandatory": "No"}, {"ItemOID": "IT.EC.ECLOT", "OrderNumber": 14, "Mandatory": "No"}, {"ItemOID": "IT.EC.ECFAST", "OrderNumber": 15, "Mandatory": "No"}, {"ItemOID": "IT.EC.ECDOSFRM", "OrderNumber": 16, "Mandatory": "No"}, {"ItemOID": "IT.EC.ECSTDAT", "OrderNumber": 17, "Mandatory": "No"}, {"ItemOID": "IT.EC.ECSTTIM", "OrderNumber": 18, "Mandatory": "No"}, {"ItemOID": "IT.EC.ECENDAT", "OrderNumber": 19, "Mandatory": "No"}, {"ItemOID": "IT.EC.ECENTIM", "OrderNumber": 20, "Mandatory": "No"}, {"ItemOID": "IT.EC.ECDSTXT", "OrderNumber": 21, "Mandatory": "No"}, {"ItemOID": "IT.EC.ECDOSU", "OrderNumber": 22, "Mandatory": "No"}, {"ItemOID": "IT.EC.ECDOSFRQ", "OrderNumber": 23, "Mandatory": "No"}, {"ItemOID": "IT.EC.ECROUTE", "OrderNumber": 24, "Mandatory": "No"}, {"ItemOID": "IT.EC.ECDOSRGM", "OrderNumber": 25, "Mandatory": "No"}, {"ItemOID": "IT.EC.ECDOSADJ", "OrderNumber": 26, "Mandatory": "No"}, {"ItemOID": "IT.EC.ECADJ", "OrderNumber": 27, "Mandatory": "No"}, {"ItemOID": "IT.EC.ECITRPYN", "OrderNumber": 28, "Mandatory": "No"}, {"ItemOID": "IT.EC.ECCINTD", "OrderNumber": 29, "Mandatory": "No"}, {"ItemOID": "IT.EC.ECCINTDU", "OrderNumber": 30, "Mandatory": "No"}, {"ItemOID": "IT.EC.ECLOC", "OrderNumber": 31, "Mandatory": "No"}, {"ItemOID": "IT.EC.ECLAT", "OrderNumber": 32, "Mandatory": "No"}, {"ItemOID": "IT.EC.ECDIR", "OrderNumber": 33, "Mandatory": "No"}, {"ItemOID": "IT.EC.ECVAMT", "OrderNumber": 34, "Mandatory": "No"}, {"ItemOID": "IT.EC.ECVAMTU", "OrderNumber": 35, "Mandatory": "No"}, {"ItemOID": "IT.EC.ECFLRT", "OrderNumber": 36, "Mandatory": "No"}, {"ItemOID": "IT.EC.ECFLRTU", "OrderNumber": 37, "Mandatory": "No"}, {"ItemOID": "IT.EC.ECTPT", "OrderNumber": 38, "Mandatory": "No"}, {"ItemOID": "IT.EC.ECTRTCMP", "OrderNumber": 39, "Mandatory": "No"}], "Class": {"Name": "INTERVENTIONS"}}, {"OID": "IGD.EX", "Name": "EX", "Domain": "EX", "Repeating": "No", "Purpose": "Data Collection", "Description": {"TranslatedText": [{"lang": "en", "_content": "Exposure"}]}, "ItemRef": [{"ItemOID": "IT.EX.STUDYID", "OrderNumber": 1, "Mandatory": "No"}, {"ItemOID": "IT.EX.SITEID", "OrderNumber": 2, "Mandatory": "No"}, {"ItemOID": "IT.EX.SUBJID", "OrderNumber": 3, "Mandatory": "No"}, {"ItemOID": "IT.EX.EPOCH", "OrderNumber": 4, "Mandatory": "No"}, {"ItemOID": "IT.EX.EXYN", "OrderNumber": 5, "Mandatory": "No"}, {"ItemOID": "IT.EX.EXCAT", "OrderNumber": 6, "Mandatory": "No"}, {"ItemOID": "IT.EX.EXSCAT", "OrderNumber": 7, "Mandatory": "No"}, {"ItemOID": "IT.EX.EXTRT", "OrderNumber": 8, "Mandatory": "No"}, {"ItemOID": "IT.EX.EXREFID", "OrderNumber": 9, "Mandatory": "No"}, {"ItemOID": "IT.EX.EXLOT", "OrderNumber": 10, "Mandatory": "No"}, {"ItemOID": "IT.EX.EXFAST", "OrderNumber": 11, "Mandatory": "No"}, {"ItemOID": "IT.EX.EXDOSFRM", "OrderNumber": 12, "Mandatory": "No"}, {"ItemOID": "IT.EX.EXSTDAT", "OrderNumber": 13, "Mandatory": "No"}, {"ItemOID": "IT.EX.EXSTTIM", "OrderNumber": 14, "Mandatory": "No"}, {"ItemOID": "IT.EX.EXENDAT", "OrderNumber": 15, "Mandatory": "No"}, {"ItemOID": "IT.EX.EXENTIM", "OrderNumber": 16, "Mandatory": "No"}, {"ItemOID": "IT.EX.EXDSTXT", "OrderNumber": 17, "Mandatory": "No"}, {"ItemOID": "IT.EX.EXDOSU", "OrderNumber": 18, "Mandatory": "No"}, {"ItemOID": "IT.EX.EXDOSFRQ", "OrderNumber": 19, "Mandatory": "No"}, {"ItemOID": "IT.EX.EXROUTE", "OrderNumber": 20, "Mandatory": "No"}, {"ItemOID": "IT.EX.EXDOSRGM", "OrderNumber": 21, "Mandatory": "No"}, {"ItemOID": "IT.EX.EXDOSADJ", "OrderNumber": 22, "Mandatory": "No"}, {"ItemOID": "IT.EX.EXADJ", "OrderNumber": 23, "Mandatory": "No"}, {"ItemOID": "IT.EX.EXITRPYN", "OrderNumber": 24, "Mandatory": "No"}, {"ItemOID": "IT.EX.EXCINTD", "OrderNumber": 25, "Mandatory": "No"}, {"ItemOID": "IT.EX.EXCINTDU", "OrderNumber": 26, "Mandatory": "No"}, {"ItemOID": "IT.EX.EXLOC", "OrderNumber": 27, "Mandatory": "No"}, {"ItemOID": "IT.EX.EXVAMT", "OrderNumber": 28, "Mandatory": "No"}, {"ItemOID": "IT.EX.EXVAMTU", "OrderNumber": 29, "Mandatory": "No"}, {"ItemOID": "IT.EX.EXFLRT", "OrderNumber": 30, "Mandatory": "No"}, {"ItemOID": "IT.EX.EXFLRTU", "OrderNumber": 31, "Mandatory": "No"}, {"ItemOID": "IT.EX.EXTPT", "OrderNumber": 32, "Mandatory": "No"}, {"ItemOID": "IT.EX.EXTRTCMP", "OrderNumber": 33, "Mandatory": "No"}, {"ItemOID": "IT.EX.EXLAT", "OrderNumber": 34, "Mandatory": "No"}, {"ItemOID": "IT.EX.EXDIR", "OrderNumber": 35, "Mandatory": "No"}], "Class": {"Name": "INTERVENTIONS"}}, {"OID": "IGD.ML", "Name": "ML", "Domain": "ML", "Repeating": "No", "Purpose": "Data Collection", "Description": {"TranslatedText": [{"lang": "en", "_content": "Meal Data"}]}, "ItemRef": [{"ItemOID": "IT.ML.STUDYID", "OrderNumber": 1, "Mandatory": "No"}, {"ItemOID": "IT.ML.SITEID", "OrderNumber": 2, "Mandatory": "No"}, {"ItemOID": "IT.ML.SUBJID", "OrderNumber": 3, "Mandatory": "No"}, {"ItemOID": "IT.ML.MLCAT", "OrderNumber": 4, "Mandatory": "No"}, {"ItemOID": "IT.ML.MLSCAT", "OrderNumber": 5, "Mandatory": "No"}, {"ItemOID": "IT.ML.MLYN", "OrderNumber": 6, "Mandatory": "No"}, {"ItemOID": "IT.ML.MLSPID", "OrderNumber": 7, "Mandatory": "No"}, {"ItemOID": "IT.ML.MLTRT", "OrderNumber": 8, "Mandatory": "No"}, {"ItemOID": "IT.ML.MLPRESP", "OrderNumber": 9, "Mandatory": "No"}, {"ItemOID": "IT.ML.MLOCCUR", "OrderNumber": 10, "Mandatory": "No"}, {"ItemOID": "IT.ML.MLREASOC", "OrderNumber": 11, "Mandatory": "No"}, {"ItemOID": "IT.ML.MLREAS", "OrderNumber": 12, "Mandatory": "No"}, {"ItemOID": "IT.ML.MLCENO", "OrderNumber": 13, "Mandatory": "No"}, {"ItemOID": "IT.ML.MLDOSE", "OrderNumber": 14, "Mandatory": "No"}, {"ItemOID": "IT.ML.MLDSTXT", "OrderNumber": 15, "Mandatory": "No"}, {"ItemOID": "IT.ML.MLDOSU", "OrderNumber": 16, "Mandatory": "No"}, {"ItemOID": "IT.ML.MLSTDAT", "OrderNumber": 17, "Mandatory": "No"}, {"ItemOID": "IT.ML.MLSTTIM", "OrderNumber": 18, "Mandatory": "No"}, {"ItemOID": "IT.ML.MLENDAT", "OrderNumber": 19, "Mandatory": "No"}, {"ItemOID": "IT.ML.MLENTIM", "OrderNumber": 20, "Mandatory": "No"}, {"ItemOID": "IT.ML.MLDECOD", "OrderNumber": 21, "Mandatory": "No"}, {"ItemOID": "IT.ML.MLMODIFY", "OrderNumber": 22, "Mandatory": "No"}], "Class": {"Name": "INTERVENTIONS"}}, {"OID": "IGD.PR", "Name": "PR", "Domain": "PR", "Repeating": "No", "Purpose": "Data Collection", "Description": {"TranslatedText": [{"lang": "en", "_content": "Procedures"}]}, "ItemRef": [{"ItemOID": "IT.PR.STUDYID", "OrderNumber": 1, "Mandatory": "No"}, {"ItemOID": "IT.PR.SITEID", "OrderNumber": 2, "Mandatory": "No"}, {"ItemOID": "IT.PR.SUBJID", "OrderNumber": 3, "Mandatory": "No"}, {"ItemOID": "IT.PR.PRYN", "OrderNumber": 4, "Mandatory": "No"}, {"ItemOID": "IT.PR.PRCAT", "OrderNumber": 5, "Mandatory": "No"}, {"ItemOID": "IT.PR.PRSCAT", "OrderNumber": 6, "Mandatory": "No"}, {"ItemOID": "IT.PR.PRSPID", "OrderNumber": 7, "Mandatory": "No"}, {"ItemOID": "IT.PR.PRTRT", "OrderNumber": 8, "Mandatory": "No"}, {"ItemOID": "IT.PR.PRDECOD", "OrderNumber": 9, "Mandatory": "No"}, {"ItemOID": "IT.PR.PRMODIFY", "OrderNumber": 10, "Mandatory": "No"}, {"ItemOID": "IT.PR.PRPRESP", "OrderNumber": 11, "Mandatory": "No"}, {"ItemOID": "IT.PR.PROCCUR", "OrderNumber": 12, "Mandatory": "No"}, {"ItemOID": "IT.PR.PRREASOC", "OrderNumber": 13, "Mandatory": "No"}, {"ItemOID": "IT.PR.PRREASND", "OrderNumber": 14, "Mandatory": "No"}, {"ItemOID": "IT.PR.PRPRIOR", "OrderNumber": 15, "Mandatory": "No"}, {"ItemOID": "IT.PR.PRSTDAT", "OrderNumber": 16, "Mandatory": "No"}, {"ItemOID": "IT.PR.PRONGO", "OrderNumber": 17, "Mandatory": "No"}, {"ItemOID": "IT.PR.PRENDAT", "OrderNumber": 18, "Mandatory": "No"}, {"ItemOID": "IT.PR.PRINDC", "OrderNumber": 19, "Mandatory": "No"}, {"ItemOID": "IT.PR.PRAENO", "OrderNumber": 20, "Mandatory": "No"}, {"ItemOID": "IT.PR.PRMHNO", "OrderNumber": 21, "Mandatory": "No"}, {"ItemOID": "IT.PR.PRDSTXT", "OrderNumber": 22, "Mandatory": "No"}, {"ItemOID": "IT.PR.PRDOSU", "OrderNumber": 23, "Mandatory": "No"}, {"ItemOID": "IT.PR.PRDOSFRQ", "OrderNumber": 24, "Mandatory": "No"}, {"ItemOID": "IT.PR.PRROUTE", "OrderNumber": 25, "Mandatory": "No"}, {"ItemOID": "IT.PR.PRLOC", "OrderNumber": 26, "Mandatory": "No"}, {"ItemOID": "IT.PR.PRLAT", "OrderNumber": 27, "Mandatory": "No"}, {"ItemOID": "IT.PR.PRDIR", "OrderNumber": 28, "Mandatory": "No"}, {"ItemOID": "IT.PR.PRPORTOT", "OrderNumber": 29, "Mandatory": "No"}, {"ItemOID": "IT.PR.PRFAST", "OrderNumber": 30, "Mandatory": "No"}, {"ItemOID": "IT.PR.PRDOSRGM", "OrderNumber": 31, "Mandatory": "No"}, {"ItemOID": "IT.PR.PRDOSADJ", "OrderNumber": 32, "Mandatory": "No"}, {"ItemOID": "IT.PR.PRADJ", "OrderNumber": 33, "Mandatory": "No"}, {"ItemOID": "IT.PR.PRTRTCMP", "OrderNumber": 34, "Mandatory": "No"}, {"ItemOID": "IT.PR.PRITRPYN", "OrderNumber": 35, "Mandatory": "No"}, {"ItemOID": "IT.PR.PRITRPRS", "OrderNumber": 36, "Mandatory": "No"}, {"ItemOID": "IT.PR.PRCINTD", "OrderNumber": 37, "Mandatory": "No"}, {"ItemOID": "IT.PR.PRCINTDU", "OrderNumber": 38, "Mandatory": "No"}, {"ItemOID": "IT.PR.PRLLT", "OrderNumber": 39, "Mandatory": "No"}, {"ItemOID": "IT.PR.PRLLTCD", "OrderNumber": 40, "Mandatory": "No"}, {"ItemOID": "IT.PR.PRPTCD", "OrderNumber": 41, "Mandatory": "No"}, {"ItemOID": "IT.PR.PRHLT", "OrderNumber": 42, "Mandatory": "No"}, {"ItemOID": "IT.PR.PRHLTCD", "OrderNumber": 43, "Mandatory": "No"}, {"ItemOID": "IT.PR.PRHLGT", "OrderNumber": 44, "Mandatory": "No"}, {"ItemOID": "IT.PR.PRHLGTCD", "OrderNumber": 45, "Mandatory": "No"}, {"ItemOID": "IT.PR.PRSOC", "OrderNumber": 46, "Mandatory": "No"}, {"ItemOID": "IT.PR.PRSOCCD", "OrderNumber": 47, "Mandatory": "No"}], "Class": {"Name": "INTERVENTIONS"}}, {"OID": "IGD.SU", "Name": "SU", "Domain": "SU", "Repeating": "No", "Purpose": "Data Collection", "Description": {"TranslatedText": [{"lang": "en", "_content": "Substance Use"}]}, "ItemRef": [{"ItemOID": "IT.SU.STUDYID", "OrderNumber": 1, "Mandatory": "No"}, {"ItemOID": "IT.SU.SITEID", "OrderNumber": 2, "Mandatory": "No"}, {"ItemOID": "IT.SU.SUBJID", "OrderNumber": 3, "Mandatory": "No"}, {"ItemOID": "IT.SU.SUTRT", "OrderNumber": 4, "Mandatory": "No"}, {"ItemOID": "IT.SU.SUCAT", "OrderNumber": 5, "Mandatory": "No"}, {"ItemOID": "IT.SU.SUSCAT", "OrderNumber": 6, "Mandatory": "No"}, {"ItemOID": "IT.SU.SUPRESP", "OrderNumber": 7, "Mandatory": "No"}, {"ItemOID": "IT.SU.SUYN", "OrderNumber": 8, "Mandatory": "No"}, {"ItemOID": "IT.SU.SUNCF", "OrderNumber": 9, "Mandatory": "No"}, {"ItemOID": "IT.SU.SUSPID", "OrderNumber": 10, "Mandatory": "No"}, {"ItemOID": "IT.SU.SUREASND", "OrderNumber": 11, "Mandatory": "No"}, {"ItemOID": "IT.SU.SUDSTXT", "OrderNumber": 12, "Mandatory": "No"}, {"ItemOID": "IT.SU.SUDOSFRQ", "OrderNumber": 13, "Mandatory": "No"}, {"ItemOID": "IT.SU.SUSTDAT", "OrderNumber": 14, "Mandatory": "No"}, {"ItemOID": "IT.SU.SUENDAT", "OrderNumber": 15, "Mandatory": "No"}, {"ItemOID": "IT.SU.SUCDUR", "OrderNumber": 16, "Mandatory": "No"}, {"ItemOID": "IT.SU.SUCDURU", "OrderNumber": 17, "Mandatory": "No"}, {"ItemOID": "IT.SU.SUMODIFY", "OrderNumber": 18, "Mandatory": "No"}, {"ItemOID": "IT.SU.SUDECOD", "OrderNumber": 19, "Mandatory": "No"}], "Class": {"Name": "INTERVENTIONS"}}, {"OID": "IGD.AE", "Name": "AE", "Domain": "AE", "Repeating": "No", "Purpose": "Data Collection", "Description": {"TranslatedText": [{"lang": "en", "_content": "Adverse Events"}]}, "ItemRef": [{"ItemOID": "IT.AE.STUDYID", "OrderNumber": 1, "Mandatory": "No"}, {"ItemOID": "IT.AE.SITEID", "OrderNumber": 2, "Mandatory": "No"}, {"ItemOID": "IT.AE.SUBJID", "OrderNumber": 3, "Mandatory": "No"}, {"ItemOID": "IT.AE.AEYN", "OrderNumber": 4, "Mandatory": "No"}, {"ItemOID": "IT.AE.AECAT", "OrderNumber": 5, "Mandatory": "No"}, {"ItemOID": "IT.AE.AESCAT", "OrderNumber": 6, "Mandatory": "No"}, {"ItemOID": "IT.AE.AESPID", "OrderNumber": 7, "Mandatory": "No"}, {"ItemOID": "IT.AE.AETERM", "OrderNumber": 8, "Mandatory": "No"}, {"ItemOID": "IT.AE.AEOCCUR", "OrderNumber": 9, "Mandatory": "No"}, {"ItemOID": "IT.AE.AEPRESP", "OrderNumber": 10, "Mandatory": "No"}, {"ItemOID": "IT.AE.AESTDAT", "OrderNumber": 11, "Mandatory": "No"}, {"ItemOID": "IT.AE.AESTTIM", "OrderNumber": 12, "Mandatory": "No"}, {"ItemOID": "IT.AE.AELOC", "OrderNumber": 13, "Mandatory": "No"}, {"ItemOID": "IT.AE.AELAT", "OrderNumber": 14, "Mandatory": "No"}, {"ItemOID": "IT.AE.AEDIR", "OrderNumber": 15, "Mandatory": "No"}, {"ItemOID": "IT.AE.AEPORTOT", "OrderNumber": 16, "Mandatory": "No"}, {"ItemOID": "IT.AE.AEONGO", "OrderNumber": 17, "Mandatory": "No"}, {"ItemOID": "IT.AE.AEENDAT", "OrderNumber": 18, "Mandatory": "No"}, {"ItemOID": "IT.AE.AEENTIM", "OrderNumber": 19, "Mandatory": "No"}, {"ItemOID": "IT.AE.AESEV", "OrderNumber": 20, "Mandatory": "No"}, {"ItemOID": "IT.AE.AETOXGR", "OrderNumber": 21, "Mandatory": "No"}, {"ItemOID": "IT.AE.AESER", "OrderNumber": 22, "Mandatory": "No"}, {"ItemOID": "IT.AE.AESDTH", "OrderNumber": 23, "Mandatory": "No"}, {"ItemOID": "IT.AE.DTHDAT", "OrderNumber": 24, "Mandatory": "No"}, {"ItemOID": "IT.AE.AESLIFE", "OrderNumber": 25, "Mandatory": "No"}, {"ItemOID": "IT.AE.AESHOSP", "OrderNumber": 26, "Mandatory": "No"}, {"ItemOID": "IT.AE.AESDISAB", "OrderNumber": 27, "Mandatory": "No"}, {"ItemOID": "IT.AE.AESCONG", "OrderNumber": 28, "Mandatory": "No"}, {"ItemOID": "IT.AE.AESINTV", "OrderNumber": 29, "Mandatory": "No"}, {"ItemOID": "IT.AE.AESMIE", "OrderNumber": 30, "Mandatory": "No"}, {"ItemOID": "IT.AE.AESCAN", "OrderNumber": 31, "Mandatory": "No"}, {"ItemOID": "IT.AE.AESOD", "OrderNumber": 32, "Mandatory": "No"}, {"ItemOID": "IT.AE.AEREL", "OrderNumber": 33, "Mandatory": "No"}, {"ItemOID": "IT.AE.AEACN", "OrderNumber": 34, "Mandatory": "No"}, {"ItemOID": "IT.AE.AEACNDEV", "OrderNumber": 35, "Mandatory": "No"}, {"ItemOID": "IT.AE.AEACNOTH", "OrderNumber": 36, "Mandatory": "No"}, {"ItemOID": "IT.AE.AEOUT", "OrderNumber": 37, "Mandatory": "No"}, {"ItemOID": "IT.AE.AEDIS", "OrderNumber": 38, "Mandatory": "No"}, {"ItemOID": "IT.AE.AERLNSYN", "OrderNumber": 39, "Mandatory": "No"}, {"ItemOID": "IT.AE.AERELNST", "OrderNumber": 40, "Mandatory": "No"}, {"ItemOID": "IT.AE.AESI", "OrderNumber": 41, "Mandatory": "No"}, {"ItemOID": "IT.AE.AEPATT", "OrderNumber": 42, "Mandatory": "No"}, {"ItemOID": "IT.AE.AECONTRT", "OrderNumber": 43, "Mandatory": "No"}, {"ItemOID": "IT.AE.AEMODIFY", "OrderNumber": 44, "Mandatory": "No"}, {"ItemOID": "IT.AE.AEDECOD", "OrderNumber": 45, "Mandatory": "No"}, {"ItemOID": "IT.AE.AELLT", "OrderNumber": 46, "Mandatory": "No"}, {"ItemOID": "IT.AE.AELLTCD", "OrderNumber": 47, "Mandatory": "No"}, {"ItemOID": "IT.AE.AEPTCD", "OrderNumber": 48, "Mandatory": "No"}, {"ItemOID": "IT.AE.AEHLT", "OrderNumber": 49, "Mandatory": "No"}, {"ItemOID": "IT.AE.AEHLTCD", "OrderNumber": 50, "Mandatory": "No"}, {"ItemOID": "IT.AE.AEHLGT", "OrderNumber": 51, "Mandatory": "No"}, {"ItemOID": "IT.AE.AEHLGTCD", "OrderNumber": 52, "Mandatory": "No"}, {"ItemOID": "IT.AE.AESOC", "OrderNumber": 53, "Mandatory": "No"}, {"ItemOID": "IT.AE.AESOCCD", "OrderNumber": 54, "Mandatory": "No"}, {"ItemOID": "IT.AE.AEACNOYN", "OrderNumber": 55, "Mandatory": "No"}], "Class": {"Name": "EVENTS"}}, {"OID": "IGD.CE", "Name": "CE", "Domain": "CE", "Repeating": "No", "Purpose": "Data Collection", "Description": {"TranslatedText": [{"lang": "en", "_content": "Clinical Events"}]}, "ItemRef": [{"ItemOID": "IT.CE.STUDYID", "OrderNumber": 1, "Mandatory": "No"}, {"ItemOID": "IT.CE.SITEID", "OrderNumber": 2, "Mandatory": "No"}, {"ItemOID": "IT.CE.SUBJID", "OrderNumber": 3, "Mandatory": "No"}, {"ItemOID": "IT.CE.CECAT", "OrderNumber": 4, "Mandatory": "No"}, {"ItemOID": "IT.CE.CESCAT", "OrderNumber": 5, "Mandatory": "No"}, {"ItemOID": "IT.CE.CEYN", "OrderNumber": 6, "Mandatory": "No"}, {"ItemOID": "IT.CE.CESPID", "OrderNumber": 7, "Mandatory": "No"}, {"ItemOID": "IT.CE.CETERM", "OrderNumber": 8, "Mandatory": "No"}, {"ItemOID": "IT.CE.CEOCCUR", "OrderNumber": 9, "Mandatory": "No"}, {"ItemOID": "IT.CE.CEPRESP", "OrderNumber": 10, "Mandatory": "No"}, {"ItemOID": "IT.CE.CESTDAT", "OrderNumber": 11, "Mandatory": "No"}, {"ItemOID": "IT.CE.CESTTIM", "OrderNumber": 12, "Mandatory": "No"}, {"ItemOID": "IT.CE.CELOC", "OrderNumber": 13, "Mandatory": "No"}, {"ItemOID": "IT.CE.CELAT", "OrderNumber": 14, "Mandatory": "No"}, {"ItemOID": "IT.CE.CEDIR", "OrderNumber": 15, "Mandatory": "No"}, {"ItemOID": "IT.CE.CEPORTOT", "OrderNumber": 16, "Mandatory": "No"}, {"ItemOID": "IT.CE.CEONGO", "OrderNumber": 17, "Mandatory": "No"}, {"ItemOID": "IT.CE.CEENDAT", "OrderNumber": 18, "Mandatory": "No"}, {"ItemOID": "IT.CE.CEENTIM", "OrderNumber": 19, "Mandatory": "No"}, {"ItemOID": "IT.CE.CESEV", "OrderNumber": 20, "Mandatory": "No"}, {"ItemOID": "IT.CE.CETOX", "OrderNumber": 21, "Mandatory": "No"}, {"ItemOID": "IT.CE.CETOXGR", "OrderNumber": 22, "Mandatory": "No"}, {"ItemOID": "IT.CE.CEMODIFY", "OrderNumber": 23, "Mandatory": "No"}, {"ItemOID": "IT.CE.CEDECOD", "OrderNumber": 24, "Mandatory": "No"}, {"ItemOID": "IT.CE.CELLT", "OrderNumber": 25, "Mandatory": "No"}, {"ItemOID": "IT.CE.CELLTCD", "OrderNumber": 26, "Mandatory": "No"}, {"ItemOID": "IT.CE.CEPTCD", "OrderNumber": 27, "Mandatory": "No"}, {"ItemOID": "IT.CE.CEHLT", "OrderNumber": 28, "Mandatory": "No"}, {"ItemOID": "IT.CE.CEHLTCD", "OrderNumber": 29, "Mandatory": "No"}, {"ItemOID": "IT.CE.CEHLGT", "OrderNumber": 30, "Mandatory": "No"}, {"ItemOID": "IT.CE.CEHLGTCD", "OrderNumber": 31, "Mandatory": "No"}, {"ItemOID": "IT.CE.CESOC", "OrderNumber": 32, "Mandatory": "No"}, {"ItemOID": "IT.CE.CESOCCD", "OrderNumber": 33, "Mandatory": "No"}], "Class": {"Name": "EVENTS"}}, {"OID": "IGD.DS", "Name": "DS", "Domain": "DS", "Repeating": "No", "Purpose": "Data Collection", "Description": {"TranslatedText": [{"lang": "en", "_content": "Disposition"}]}, "Class": {"Name": "EVENTS"}}, {"OID": "IGD.DV", "Name": "DV", "Domain": "DV", "Repeating": "No", "Purpose": "Data Collection", "Description": {"TranslatedText": [{"lang": "en", "_content": "Protocol Deviations"}]}, "ItemRef": [{"ItemOID": "IT.DV.STUDYID", "OrderNumber": 1, "Mandatory": "No"}, {"ItemOID": "IT.DV.SITEID", "OrderNumber": 2, "Mandatory": "No"}, {"ItemOID": "IT.DV.SUBJID", "OrderNumber": 3, "Mandatory": "No"}, {"ItemOID": "IT.DV.DVCAT", "OrderNumber": 4, "Mandatory": "No"}, {"ItemOID": "IT.DV.DVSCAT", "OrderNumber": 5, "Mandatory": "No"}, {"ItemOID": "IT.DV.DVYN", "OrderNumber": 6, "Mandatory": "No"}, {"ItemOID": "IT.DV.DVDECOD", "OrderNumber": 7, "Mandatory": "No"}, {"ItemOID": "IT.DV.DVTERM", "OrderNumber": 8, "Mandatory": "No"}, {"ItemOID": "IT.DV.DVSTDAT", "OrderNumber": 9, "Mandatory": "No"}, {"ItemOID": "IT.DV.DVSTTIM", "OrderNumber": 10, "Mandatory": "No"}, {"ItemOID": "IT.DV.DVENDAT", "OrderNumber": 11, "Mandatory": "No"}, {"ItemOID": "IT.DV.DVENTIM", "OrderNumber": 12, "Mandatory": "No"}, {"ItemOID": "IT.DV.DVSPID", "OrderNumber": 13, "Mandatory": "No"}], "Class": {"Name": "EVENTS"}}, {"OID": "IGD.HO", "Name": "HO", "Domain": "HO", "Repeating": "No", "Purpose": "Data Collection", "Description": {"TranslatedText": [{"lang": "en", "_content": "Healthcare Encounters"}]}, "ItemRef": [{"ItemOID": "IT.HO.STUDYID", "OrderNumber": 1, "Mandatory": "No"}, {"ItemOID": "IT.HO.SITEID", "OrderNumber": 2, "Mandatory": "No"}, {"ItemOID": "IT.HO.SUBJID", "OrderNumber": 3, "Mandatory": "No"}, {"ItemOID": "IT.HO.HOYN", "OrderNumber": 4, "Mandatory": "No"}, {"ItemOID": "IT.HO.HOCAT", "OrderNumber": 5, "Mandatory": "No"}, {"ItemOID": "IT.HO.HOSCAT", "OrderNumber": 6, "Mandatory": "No"}, {"ItemOID": "IT.HO.HOOCCUR", "OrderNumber": 7, "Mandatory": "No"}, {"ItemOID": "IT.HO.HOPRESP", "OrderNumber": 8, "Mandatory": "No"}, {"ItemOID": "IT.HO.HOREASND", "OrderNumber": 9, "Mandatory": "No"}, {"ItemOID": "IT.HO.HOSPID", "OrderNumber": 10, "Mandatory": "No"}, {"ItemOID": "IT.HO.HOTERM", "OrderNumber": 11, "Mandatory": "No"}, {"ItemOID": "IT.HO.HODECOD", "OrderNumber": 12, "Mandatory": "No"}, {"ItemOID": "IT.HO.HOSTDAT", "OrderNumber": 13, "Mandatory": "No"}, {"ItemOID": "IT.HO.HOSTTIM", "OrderNumber": 14, "Mandatory": "No"}, {"ItemOID": "IT.HO.HOENDAT", "OrderNumber": 15, "Mandatory": "No"}, {"ItemOID": "IT.HO.HOENTIM", "OrderNumber": 16, "Mandatory": "No"}, {"ItemOID": "IT.HO.HOCDUR", "OrderNumber": 17, "Mandatory": "No"}, {"ItemOID": "IT.HO.HOCDURU", "OrderNumber": 18, "Mandatory": "No"}, {"ItemOID": "IT.HO.HOONGO", "OrderNumber": 19, "Mandatory": "No"}, {"ItemOID": "IT.HO.HOREAS", "OrderNumber": 20, "Mandatory": "No"}, {"ItemOID": "IT.HO.HOAENO", "OrderNumber": 21, "Mandatory": "No"}], "Class": {"Name": "EVENTS"}}, {"OID": "IGD.MH", "Name": "MH", "Domain": "MH", "Repeating": "No", "Purpose": "Data Collection", "Description": {"TranslatedText": [{"lang": "en", "_content": "Medical History"}]}, "ItemRef": [{"ItemOID": "IT.MH.STUDYID", "OrderNumber": 1, "Mandatory": "No"}, {"ItemOID": "IT.MH.SITEID", "OrderNumber": 2, "Mandatory": "No"}, {"ItemOID": "IT.MH.SUBJID", "OrderNumber": 3, "Mandatory": "No"}, {"ItemOID": "IT.MH.MHYN", "OrderNumber": 4, "Mandatory": "No"}, {"ItemOID": "IT.MH.MHCAT", "OrderNumber": 5, "Mandatory": "No"}, {"ItemOID": "IT.MH.MHSCAT", "OrderNumber": 6, "Mandatory": "No"}, {"ItemOID": "IT.MH.MHDAT", "OrderNumber": 7, "Mandatory": "No"}, {"ItemOID": "IT.MH.MHSPID", "OrderNumber": 8, "Mandatory": "No"}, {"ItemOID": "IT.MH.MHEVDTYP", "OrderNumber": 9, "Mandatory": "No"}, {"ItemOID": "IT.MH.MHTERM", "OrderNumber": 10, "Mandatory": "No"}, {"ItemOID": "IT.MH.MHOCCUR", "OrderNumber": 11, "Mandatory": "No"}, {"ItemOID": "IT.MH.MHPRESP", "OrderNumber": 12, "Mandatory": "No"}, {"ItemOID": "IT.MH.MHPRIOR", "OrderNumber": 13, "Mandatory": "No"}, {"ItemOID": "IT.MH.MHONGO", "OrderNumber": 14, "Mandatory": "No"}, {"ItemOID": "IT.MH.MHCTRL", "OrderNumber": 15, "Mandatory": "No"}, {"ItemOID": "IT.MH.MHSTDAT", "OrderNumber": 16, "Mandatory": "No"}, {"ItemOID": "IT.MH.MHENDAT", "OrderNumber": 17, "Mandatory": "No"}, {"ItemOID": "IT.MH.MHLOC", "OrderNumber": 18, "Mandatory": "No"}, {"ItemOID": "IT.MH.MHLAT", "OrderNumber": 19, "Mandatory": "No"}, {"ItemOID": "IT.MH.MHDIR", "OrderNumber": 20, "Mandatory": "No"}, {"ItemOID": "IT.MH.MHPORTOT", "OrderNumber": 21, "Mandatory": "No"}, {"ItemOID": "IT.MH.MHMODIFY", "OrderNumber": 22, "Mandatory": "No"}, {"ItemOID": "IT.MH.MHDECOD", "OrderNumber": 23, "Mandatory": "No"}, {"ItemOID": "IT.MH.MHLLT", "OrderNumber": 24, "Mandatory": "No"}, {"ItemOID": "IT.MH.MHLLTCD", "OrderNumber": 25, "Mandatory": "No"}, {"ItemOID": "IT.MH.MHPTCD", "OrderNumber": 26, "Mandatory": "No"}, {"ItemOID": "IT.MH.MHHLT", "OrderNumber": 27, "Mandatory": "No"}, {"ItemOID": "IT.MH.MHHLTCD", "OrderNumber": 28, "Mandatory": "No"}, {"ItemOID": "IT.MH.MHHLGT", "OrderNumber": 29, "Mandatory": "No"}, {"ItemOID": "IT.MH.MHHLGTCD", "OrderNumber": 30, "Mandatory": "No"}, {"ItemOID": "IT.MH.MHSOC", "OrderNumber": 31, "Mandatory": "No"}, {"ItemOID": "IT.MH.MHSOCCD", "OrderNumber": 32, "Mandatory": "No"}], "Class": {"Name": "EVENTS"}}, {"OID": "IGD.FA", "Name": "FA", "Domain": "FA", "Repeating": "No", "Purpose": "Data Collection", "Description": {"TranslatedText": [{"lang": "en", "_content": "Findings About Events or Interventions"}]}, "ItemRef": [{"ItemOID": "IT.FA.STUDYID", "OrderNumber": 1, "Mandatory": "No"}, {"ItemOID": "IT.FA.SITEID", "OrderNumber": 2, "Mandatory": "No"}, {"ItemOID": "IT.FA.SUBJID", "OrderNumber": 3, "Mandatory": "No"}, {"ItemOID": "IT.FA.VISIT", "OrderNumber": 4, "Mandatory": "No"}, {"ItemOID": "IT.FA.VISDAT", "OrderNumber": 5, "Mandatory": "No"}, {"ItemOID": "IT.FA.FAOBJ", "OrderNumber": 6, "Mandatory": "No"}, {"ItemOID": "IT.FA.FAYN", "OrderNumber": 7, "Mandatory": "No"}, {"ItemOID": "IT.FA.FAPERF", "OrderNumber": 8, "Mandatory": "No"}, {"ItemOID": "IT.FA.FADAT", "OrderNumber": 9, "Mandatory": "No"}, {"ItemOID": "IT.FA.FATIM", "OrderNumber": 10, "Mandatory": "No"}, {"ItemOID": "IT.FA.FATEST", "OrderNumber": 11, "Mandatory": "No"}, {"ItemOID": "IT.FA.FATSTDTL", "OrderNumber": 12, "Mandatory": "No"}, {"ItemOID": "IT.FA.FACAT", "OrderNumber": 13, "Mandatory": "No"}, {"ItemOID": "IT.FA.FASCAT", "OrderNumber": 14, "Mandatory": "No"}, {"ItemOID": "IT.FA.FAPOS", "OrderNumber": 15, "Mandatory": "No"}, {"ItemOID": "IT.FA.FAORRES", "OrderNumber": 16, "Mandatory": "No"}, {"ItemOID": "IT.FA.FAORRESU", "OrderNumber": 17, "Mandatory": "No"}, {"ItemOID": "IT.FA.FAORNRLO", "OrderNumber": 18, "Mandatory": "No"}, {"ItemOID": "IT.FA.FAORNRHI", "OrderNumber": 19, "Mandatory": "No"}, {"ItemOID": "IT.FA.FANRIND", "OrderNumber": 20, "Mandatory": "No"}, {"ItemOID": "IT.FA.FASTAT", "OrderNumber": 21, "Mandatory": "No"}, {"ItemOID": "IT.FA.FAREASND", "OrderNumber": 22, "Mandatory": "No"}, {"ItemOID": "IT.FA.FASPEC", "OrderNumber": 23, "Mandatory": "No"}, {"ItemOID": "IT.FA.FASPCCND", "OrderNumber": 24, "Mandatory": "No"}, {"ItemOID": "IT.FA.FALOC", "OrderNumber": 25, "Mandatory": "No"}, {"ItemOID": "IT.FA.FALAT", "OrderNumber": 26, "Mandatory": "No"}, {"ItemOID": "IT.FA.FADIR", "OrderNumber": 27, "Mandatory": "No"}, {"ItemOID": "IT.FA.FAPORTOT", "OrderNumber": 28, "Mandatory": "No"}, {"ItemOID": "IT.FA.FAMETHOD", "OrderNumber": 29, "Mandatory": "No"}, {"ItemOID": "IT.FA.FALEAD", "OrderNumber": 30, "Mandatory": "No"}, {"ItemOID": "IT.FA.FAFAST", "OrderNumber": 31, "Mandatory": "No"}, {"ItemOID": "IT.FA.FAEVAL", "OrderNumber": 32, "Mandatory": "No"}, {"ItemOID": "IT.FA.FAEVALID", "OrderNumber": 33, "Mandatory": "No"}, {"ItemOID": "IT.FA.FACLSIG", "OrderNumber": 34, "Mandatory": "No"}], "Class": {"Name": "FINDINGS ABOUT"}}, {"OID": "IGD.SR", "Name": "SR", "Domain": "SR", "Repeating": "No", "Purpose": "Data Collection", "Description": {"TranslatedText": [{"lang": "en", "_content": "Skin Response"}]}, "ItemRef": [{"ItemOID": "IT.SR.STUDYID", "OrderNumber": 1, "Mandatory": "No"}, {"ItemOID": "IT.SR.SITEID", "OrderNumber": 2, "Mandatory": "No"}, {"ItemOID": "IT.SR.SUBJID", "OrderNumber": 3, "Mandatory": "No"}, {"ItemOID": "IT.SR.VISIT", "OrderNumber": 4, "Mandatory": "No"}, {"ItemOID": "IT.SR.VISDAT", "OrderNumber": 5, "Mandatory": "No"}, {"ItemOID": "IT.SR.SRPERF", "OrderNumber": 6, "Mandatory": "No"}, {"ItemOID": "IT.SR.SRREASND", "OrderNumber": 7, "Mandatory": "No"}, {"ItemOID": "IT.SR.SRCAT", "OrderNumber": 8, "Mandatory": "No"}, {"ItemOID": "IT.SR.SRSCAT", "OrderNumber": 9, "Mandatory": "No"}, {"ItemOID": "IT.SR.SRSPID", "OrderNumber": 10, "Mandatory": "No"}, {"ItemOID": "IT.SR.SROBJ", "OrderNumber": 11, "Mandatory": "No"}, {"ItemOID": "IT.SR.SRRFTDAT", "OrderNumber": 12, "Mandatory": "No"}, {"ItemOID": "IT.SR.SRRFTTIM", "OrderNumber": 13, "Mandatory": "No"}, {"ItemOID": "IT.SR.SRLOC", "OrderNumber": 14, "Mandatory": "No"}, {"ItemOID": "IT.SR.SRLAT", "OrderNumber": 15, "Mandatory": "No"}, {"ItemOID": "IT.SR.SRTEST", "OrderNumber": 16, "Mandatory": "No"}, {"ItemOID": "IT.SR.SRTPT", "OrderNumber": 17, "Mandatory": "No"}, {"ItemOID": "IT.SR.SRDAT", "OrderNumber": 18, "Mandatory": "No"}, {"ItemOID": "IT.SR.SRTIM", "OrderNumber": 19, "Mandatory": "No"}, {"ItemOID": "IT.SR.SRDIR", "OrderNumber": 20, "Mandatory": "No"}, {"ItemOID": "IT.SR.SREVAL", "OrderNumber": 21, "Mandatory": "No"}, {"ItemOID": "IT.SR.SREVALID", "OrderNumber": 22, "Mandatory": "No"}, {"ItemOID": "IT.SR.SRORRES", "OrderNumber": 23, "Mandatory": "No"}, {"ItemOID": "IT.SR.SRORRESU", "OrderNumber": 24, "Mandatory": "No"}, {"ItemOID": "IT.SR.SRNRIND", "OrderNumber": 25, "Mandatory": "No"}, {"ItemOID": "IT.SR.SRCLSIG", "OrderNumber": 26, "Mandatory": "No"}], "Class": {"Name": "FINDINGS ABOUT"}}, {"OID": "IGD.DA", "Name": "DA", "Domain": "DA", "Repeating": "No", "Purpose": "Data Collection", "Description": {"TranslatedText": [{"lang": "en", "_content": "Drug Accountability"}]}, "ItemRef": [{"ItemOID": "IT.DA.STUDYID", "OrderNumber": 1, "Mandatory": "No"}, {"ItemOID": "IT.DA.SITEID", "OrderNumber": 2, "Mandatory": "No"}, {"ItemOID": "IT.DA.SUBJID", "OrderNumber": 3, "Mandatory": "No"}, {"ItemOID": "IT.DA.VISIT", "OrderNumber": 4, "Mandatory": "No"}, {"ItemOID": "IT.DA.VISDAT", "OrderNumber": 5, "Mandatory": "No"}, {"ItemOID": "IT.DA.DAPERF", "OrderNumber": 6, "Mandatory": "No"}, {"ItemOID": "IT.DA.DACAT", "OrderNumber": 7, "Mandatory": "No"}, {"ItemOID": "IT.DA.DASCAT", "OrderNumber": 8, "Mandatory": "No"}, {"ItemOID": "IT.DA.DADAT", "OrderNumber": 9, "Mandatory": "No"}, {"ItemOID": "IT.DA.DAREFID", "OrderNumber": 10, "Mandatory": "No"}, {"ItemOID": "IT.DA.DATEST", "OrderNumber": 11, "Mandatory": "No"}, {"ItemOID": "IT.DA.DAORRES", "OrderNumber": 12, "Mandatory": "No"}, {"ItemOID": "IT.DA.DAORRESU", "OrderNumber": 13, "Mandatory": "No"}], "Class": {"Name": "FINDINGS"}}, {"OID": "IGD.DD", "Name": "DD", "Domain": "DD", "Repeating": "No", "Purpose": "Data Collection", "Description": {"TranslatedText": [{"lang": "en", "_content": "Death Details"}]}, "ItemRef": [{"ItemOID": "IT.DD.STUDYID", "OrderNumber": 1, "Mandatory": "No"}, {"ItemOID": "IT.DD.SITEID", "OrderNumber": 2, "Mandatory": "No"}, {"ItemOID": "IT.DD.SUBJID", "OrderNumber": 3, "Mandatory": "No"}, {"ItemOID": "IT.DD.VISIT", "OrderNumber": 4, "Mandatory": "No"}, {"ItemOID": "IT.DD.VISDAT", "OrderNumber": 5, "Mandatory": "No"}, {"ItemOID": "IT.DD.DDCAT", "OrderNumber": 6, "Mandatory": "No"}, {"ItemOID": "IT.DD.DDSCAT", "OrderNumber": 7, "Mandatory": "No"}, {"ItemOID": "IT.DD.DDYN", "OrderNumber": 8, "Mandatory": "No"}, {"ItemOID": "IT.DD.DDDAT", "OrderNumber": 9, "Mandatory": "No"}, {"ItemOID": "IT.DD.DDSPID", "OrderNumber": 10, "Mandatory": "No"}, {"ItemOID": "IT.DD.DTHDAT", "OrderNumber": 11, "Mandatory": "No"}, {"ItemOID": "IT.DD.DDTEST", "OrderNumber": 12, "Mandatory": "No"}, {"ItemOID": "IT.DD.DDORRES", "OrderNumber": 13, "Mandatory": "No"}, {"ItemOID": "IT.DD.DDEVAL", "OrderNumber": 14, "Mandatory": "No"}], "Class": {"Name": "FINDINGS"}}, {"OID": "IGD.EG", "Name": "EG", "Domain": "EG", "Repeating": "No", "Purpose": "Data Collection", "Description": {"TranslatedText": [{"lang": "en", "_content": "ECG Test Results"}]}, "Class": {"Name": "FINDINGS"}}, {"OID": "IGD.IE", "Name": "IE", "Domain": "IE", "Repeating": "No", "Purpose": "Data Collection", "Description": {"TranslatedText": [{"lang": "en", "_content": "Inclusion/Exclusion Criteria Not Met"}]}, "ItemRef": [{"ItemOID": "IT.IE.STUDYID", "OrderNumber": 1, "Mandatory": "No"}, {"ItemOID": "IT.IE.SITEID", "OrderNumber": 2, "Mandatory": "No"}, {"ItemOID": "IT.IE.SUBJID", "OrderNumber": 3, "Mandatory": "No"}, {"ItemOID": "IT.IE.VISIT", "OrderNumber": 4, "Mandatory": "No"}, {"ItemOID": "IT.IE.VISDAT", "OrderNumber": 5, "Mandatory": "No"}, {"ItemOID": "IT.IE.IEYN", "OrderNumber": 6, "Mandatory": "No"}, {"ItemOID": "IT.IE.IEDAT", "OrderNumber": 7, "Mandatory": "No"}, {"ItemOID": "IT.IE.IECAT", "OrderNumber": 8, "Mandatory": "No"}, {"ItemOID": "IT.IE.IESCAT", "OrderNumber": 9, "Mandatory": "No"}, {"ItemOID": "IT.IE.IETESTCD", "OrderNumber": 10, "Mandatory": "No"}, {"ItemOID": "IT.IE.IETEST", "OrderNumber": 11, "Mandatory": "No"}, {"ItemOID": "IT.IE.IEORRES", "OrderNumber": 12, "Mandatory": "No"}], "Class": {"Name": "FINDINGS"}}, {"OID": "IGD.LB", "Name": "LB", "Domain": "LB", "Repeating": "No", "Purpose": "Data Collection", "Description": {"TranslatedText": [{"lang": "en", "_content": "Laboratory Test Results"}]}, "Class": {"Name": "FINDINGS"}}, {"OID": "IGD.MB", "Name": "MB", "Domain": "MB", "Repeating": "No", "Purpose": "Data Collection", "Description": {"TranslatedText": [{"lang": "en", "_content": "Microbiology Specimen"}]}, "Class": {"Name": "FINDINGS"}}, {"OID": "IGD.MI", "Name": "MI", "Domain": "MI", "Repeating": "No", "Purpose": "Data Collection", "Description": {"TranslatedText": [{"lang": "en", "_content": "Microscopic Findings"}]}, "Class": {"Name": "FINDINGS"}}, {"OID": "IGD.MS", "Name": "MS", "Domain": "MS", "Repeating": "No", "Purpose": "Data Collection", "Description": {"TranslatedText": [{"lang": "en", "_content": "Microbiology Susceptibility"}]}, "Class": {"Name": "FINDINGS"}}, {"OID": "IGD.OE", "Name": "OE", "Domain": "OE", "Repeating": "No", "Purpose": "Data Collection", "Description": {"TranslatedText": [{"lang": "en", "_content": "Ophthalmic Examinations"}]}, "ItemRef": [{"ItemOID": "IT.OE.STUDYID", "OrderNumber": 1, "Mandatory": "No"}, {"ItemOID": "IT.OE.SITEID", "OrderNumber": 2, "Mandatory": "No"}, {"ItemOID": "IT.OE.SUBJID", "OrderNumber": 3, "Mandatory": "No"}, {"ItemOID": "IT.OE.VISIT", "OrderNumber": 4, "Mandatory": "No"}, {"ItemOID": "IT.OE.VISDAT", "OrderNumber": 5, "Mandatory": "No"}, {"ItemOID": "IT.OE.FOCID", "OrderNumber": 6, "Mandatory": "No"}, {"ItemOID": "IT.OE.OEPERF", "OrderNumber": 7, "Mandatory": "No"}, {"ItemOID": "IT.OE.OEDAT", "OrderNumber": 8, "Mandatory": "No"}, {"ItemOID": "IT.OE.OETIM", "OrderNumber": 9, "Mandatory": "No"}, {"ItemOID": "IT.OE.OETEST", "OrderNumber": 10, "Mandatory": "No"}, {"ItemOID": "IT.OE.OETSTDTL", "OrderNumber": 11, "Mandatory": "No"}, {"ItemOID": "IT.OE.OECAT", "OrderNumber": 12, "Mandatory": "No"}, {"ItemOID": "IT.OE.OESCAT", "OrderNumber": 13, "Mandatory": "No"}, {"ItemOID": "IT.OE.OEORRES", "OrderNumber": 14, "Mandatory": "No"}, {"ItemOID": "IT.OE.OEORRESU", "OrderNumber": 15, "Mandatory": "No"}, {"ItemOID": "IT.OE.OERES", "OrderNumber": 16, "Mandatory": "No"}, {"ItemOID": "IT.OE.OERESOTH", "OrderNumber": 17, "Mandatory": "No"}, {"ItemOID": "IT.OE.OEORNRLO", "OrderNumber": 18, "Mandatory": "No"}, {"ItemOID": "IT.OE.OEORNRHI", "OrderNumber": 19, "Mandatory": "No"}, {"ItemOID": "IT.OE.OECSTNRC", "OrderNumber": 20, "Mandatory": "No"}, {"ItemOID": "IT.OE.OENRIND", "OrderNumber": 21, "Mandatory": "No"}, {"ItemOID": "IT.OE.OERESCAT", "OrderNumber": 22, "Mandatory": "No"}, {"ItemOID": "IT.OE.OEREASND", "OrderNumber": 23, "Mandatory": "No"}, {"ItemOID": "IT.OE.OELOC", "OrderNumber": 24, "Mandatory": "No"}, {"ItemOID": "IT.OE.OELAT", "OrderNumber": 25, "Mandatory": "No"}, {"ItemOID": "IT.OE.OEDIR", "OrderNumber": 26, "Mandatory": "No"}, {"ItemOID": "IT.OE.OEPORTOT", "OrderNumber": 27, "Mandatory": "No"}, {"ItemOID": "IT.OE.OEMETHOD", "OrderNumber": 28, "Mandatory": "No"}, {"ItemOID": "IT.OE.OEEVAL", "OrderNumber": 29, "Mandatory": "No"}, {"ItemOID": "IT.OE.OEEVALID", "OrderNumber": 30, "Mandatory": "No"}, {"ItemOID": "IT.OE.OEACPTFL", "OrderNumber": 31, "Mandatory": "No"}, {"ItemOID": "IT.OE.OEREPNUM", "OrderNumber": 32, "Mandatory": "No"}], "Class": {"Name": "FINDINGS"}}, {"OID": "IGD.PC", "Name": "PC", "Domain": "PC", "Repeating": "No", "Purpose": "Data Collection", "Description": {"TranslatedText": [{"lang": "en", "_content": "Pharmacokinetics Concentrations"}]}, "Class": {"Name": "FINDINGS"}}, {"OID": "IGD.PE", "Name": "PE", "Domain": "PE", "Repeating": "No", "Purpose": "Data Collection", "Description": {"TranslatedText": [{"lang": "en", "_content": "Physical Examination"}]}, "Class": {"Name": "FINDINGS"}}, {"OID": "IGD.RE", "Name": "RE", "Domain": "RE", "Repeating": "No", "Purpose": "Data Collection", "Description": {"TranslatedText": [{"lang": "en", "_content": "Respiratory System Findings"}]}, "ItemRef": [{"ItemOID": "IT.RE.STUDYID", "OrderNumber": 1, "Mandatory": "No"}, {"ItemOID": "IT.RE.SITEID", "OrderNumber": 2, "Mandatory": "No"}, {"ItemOID": "IT.RE.SUBJID", "OrderNumber": 3, "Mandatory": "No"}, {"ItemOID": "IT.RE.VISIT", "OrderNumber": 4, "Mandatory": "No"}, {"ItemOID": "IT.RE.VISDAT", "OrderNumber": 5, "Mandatory": "No"}, {"ItemOID": "IT.RE.REPERF", "OrderNumber": 6, "Mandatory": "No"}, {"ItemOID": "IT.RE.REDAT", "OrderNumber": 7, "Mandatory": "No"}, {"ItemOID": "IT.RE.RETIM", "OrderNumber": 8, "Mandatory": "No"}, {"ItemOID": "IT.RE.RETPT", "OrderNumber": 9, "Mandatory": "No"}, {"ItemOID": "IT.RE.RETEST", "OrderNumber": 10, "Mandatory": "No"}, {"ItemOID": "IT.RE.RECAT", "OrderNumber": 11, "Mandatory": "No"}, {"ItemOID": "IT.RE.RESCAT", "OrderNumber": 12, "Mandatory": "No"}, {"ItemOID": "IT.RE.REORRES", "OrderNumber": 13, "Mandatory": "No"}, {"ItemOID": "IT.RE.REORRESU", "OrderNumber": 14, "Mandatory": "No"}, {"ItemOID": "IT.RE.RERES", "OrderNumber": 15, "Mandatory": "No"}, {"ItemOID": "IT.RE.REDESC", "OrderNumber": 16, "Mandatory": "No"}, {"ItemOID": "IT.RE.RERESOTH", "OrderNumber": 17, "Mandatory": "No"}, {"ItemOID": "IT.RE.REORNRLO", "OrderNumber": 18, "Mandatory": "No"}, {"ItemOID": "IT.RE.REORNRHI", "OrderNumber": 19, "Mandatory": "No"}, {"ItemOID": "IT.RE.RENRIND", "OrderNumber": 20, "Mandatory": "No"}, {"ItemOID": "IT.RE.RESTAT", "OrderNumber": 21, "Mandatory": "No"}, {"ItemOID": "IT.RE.REREASND", "OrderNumber": 22, "Mandatory": "No"}, {"ItemOID": "IT.RE.REPOS", "OrderNumber": 23, "Mandatory": "No"}, {"ItemOID": "IT.RE.RELOC", "OrderNumber": 24, "Mandatory": "No"}, {"ItemOID": "IT.RE.RELAT", "OrderNumber": 25, "Mandatory": "No"}, {"ItemOID": "IT.RE.REDIR", "OrderNumber": 26, "Mandatory": "No"}, {"ItemOID": "IT.RE.REMETHOD", "OrderNumber": 27, "Mandatory": "No"}, {"ItemOID": "IT.RE.REEVAL", "OrderNumber": 28, "Mandatory": "No"}, {"ItemOID": "IT.RE.REEVALID", "OrderNumber": 29, "Mandatory": "No"}, {"ItemOID": "IT.RE.REACPTFL", "OrderNumber": 30, "Mandatory": "No"}, {"ItemOID": "IT.RE.REREPNUM", "OrderNumber": 31, "Mandatory": "No"}, {"ItemOID": "IT.RE.RECLSIG", "OrderNumber": 32, "Mandatory": "No"}], "Class": {"Name": "FINDINGS"}}, {"OID": "IGD.RP", "Name": "RP", "Domain": "RP", "Repeating": "No", "Purpose": "Data Collection", "Description": {"TranslatedText": [{"lang": "en", "_content": "Reproductive System Findings"}]}, "ItemRef": [{"ItemOID": "IT.RP.STUDYID", "OrderNumber": 1, "Mandatory": "No"}, {"ItemOID": "IT.RP.SITEID", "OrderNumber": 2, "Mandatory": "No"}, {"ItemOID": "IT.RP.SUBJID", "OrderNumber": 3, "Mandatory": "No"}, {"ItemOID": "IT.RP.VISIT", "OrderNumber": 4, "Mandatory": "No"}, {"ItemOID": "IT.RP.VISDAT", "OrderNumber": 5, "Mandatory": "No"}, {"ItemOID": "IT.RP.RPCAT", "OrderNumber": 6, "Mandatory": "No"}, {"ItemOID": "IT.RP.RPSCAT", "OrderNumber": 7, "Mandatory": "No"}, {"ItemOID": "IT.RP.RPPERF", "OrderNumber": 8, "Mandatory": "No"}, {"ItemOID": "IT.RP.RPREASND", "OrderNumber": 9, "Mandatory": "No"}, {"ItemOID": "IT.RP.RPYN", "OrderNumber": 10, "Mandatory": "No"}, {"ItemOID": "IT.RP.RPSPID", "OrderNumber": 11, "Mandatory": "No"}, {"ItemOID": "IT.RP.RPTEST", "OrderNumber": 12, "Mandatory": "No"}, {"ItemOID": "IT.RP.RPORRES", "OrderNumber": 13, "Mandatory": "No"}, {"ItemOID": "IT.RP.RPORRESU", "OrderNumber": 14, "Mandatory": "No"}, {"ItemOID": "IT.RP.RPDAT", "OrderNumber": 15, "Mandatory": "No"}], "Class": {"Name": "FINDINGS"}}, {"OID": "IGD.RS", "Name": "RS", "Domain": "RS", "Repeating": "No", "Purpose": "Data Collection", "Description": {"TranslatedText": [{"lang": "en", "_content": "Disease Response and Clin Classification"}]}, "ItemRef": [{"ItemOID": "IT.RS.STUDYID", "OrderNumber": 1, "Mandatory": "No"}, {"ItemOID": "IT.RS.SITEID", "OrderNumber": 2, "Mandatory": "No"}, {"ItemOID": "IT.RS.SUBJID", "OrderNumber": 3, "Mandatory": "No"}, {"ItemOID": "IT.RS.VISIT", "OrderNumber": 4, "Mandatory": "No"}, {"ItemOID": "IT.RS.VISDAT", "OrderNumber": 5, "Mandatory": "No"}, {"ItemOID": "IT.RS.RSCAT", "OrderNumber": 6, "Mandatory": "No"}, {"ItemOID": "IT.RS.RSSCAT", "OrderNumber": 7, "Mandatory": "No"}, {"ItemOID": "IT.RS.RSPERF", "OrderNumber": 8, "Mandatory": "No"}, {"ItemOID": "IT.RS.RSREASND", "OrderNumber": 9, "Mandatory": "No"}, {"ItemOID": "IT.RS.RSDAT", "OrderNumber": 10, "Mandatory": "No"}, {"ItemOID": "IT.RS.RSEVAL", "OrderNumber": 11, "Mandatory": "No"}, {"ItemOID": "IT.RS.RSEVALID", "OrderNumber": 12, "Mandatory": "No"}, {"ItemOID": "IT.RS.RSLNKID", "OrderNumber": 13, "Mandatory": "No"}, {"ItemOID": "IT.RS.RSLNKGRP", "OrderNumber": 14, "Mandatory": "No"}, {"ItemOID": "IT.RS.RSTEST", "OrderNumber": 15, "Mandatory": "No"}, {"ItemOID": "IT.RS.RSORRES", "OrderNumber": 16, "Mandatory": "No"}, {"ItemOID": "IT.RS.RSORRESU", "OrderNumber": 17, "Mandatory": "No"}], "Class": {"Name": "FINDINGS"}}, {"OID": "IGD.SC", "Name": "SC", "Domain": "SC", "Repeating": "No", "Purpose": "Data Collection", "Description": {"TranslatedText": [{"lang": "en", "_content": "Subject Characteristics"}]}, "ItemRef": [{"ItemOID": "IT.SC.STUDYID", "OrderNumber": 1, "Mandatory": "No"}, {"ItemOID": "IT.SC.SITEID", "OrderNumber": 2, "Mandatory": "No"}, {"ItemOID": "IT.SC.SUBJID", "OrderNumber": 3, "Mandatory": "No"}, {"ItemOID": "IT.SC.VISIT", "OrderNumber": 4, "Mandatory": "No"}, {"ItemOID": "IT.SC.VISDAT", "OrderNumber": 5, "Mandatory": "No"}, {"ItemOID": "IT.SC.SCCAT", "OrderNumber": 6, "Mandatory": "No"}, {"ItemOID": "IT.SC.SCSCAT", "OrderNumber": 7, "Mandatory": "No"}, {"ItemOID": "IT.SC.SCPERF", "OrderNumber": 8, "Mandatory": "No"}, {"ItemOID": "IT.SC.SCSPID", "OrderNumber": 9, "Mandatory": "No"}, {"ItemOID": "IT.SC.SCDAT", "OrderNumber": 10, "Mandatory": "No"}, {"ItemOID": "IT.SC.SCTEST", "OrderNumber": 11, "Mandatory": "No"}, {"ItemOID": "IT.SC.SCORRES", "OrderNumber": 12, "Mandatory": "No"}], "Class": {"Name": "FINDINGS"}}, {"OID": "IGD.TR", "Name": "TR", "Domain": "TR", "Repeating": "No", "Purpose": "Data Collection", "Description": {"TranslatedText": [{"lang": "en", "_content": "Tumor/Lesion Results"}]}, "ItemRef": [{"ItemOID": "IT.TR.STUDYID", "OrderNumber": 1, "Mandatory": "No"}, {"ItemOID": "IT.TR.SITEID", "OrderNumber": 2, "Mandatory": "No"}, {"ItemOID": "IT.TR.SUBJID", "OrderNumber": 3, "Mandatory": "No"}, {"ItemOID": "IT.TR.VISIT", "OrderNumber": 4, "Mandatory": "No"}, {"ItemOID": "IT.TR.VISDAT", "OrderNumber": 5, "Mandatory": "No"}, {"ItemOID": "IT.TR.TRLNKGRP", "OrderNumber": 6, "Mandatory": "No"}, {"ItemOID": "IT.TR.TRCAT", "OrderNumber": 7, "Mandatory": "No"}, {"ItemOID": "IT.TR.TRSCAT", "OrderNumber": 8, "Mandatory": "No"}, {"ItemOID": "IT.TR.TRSTAT", "OrderNumber": 9, "Mandatory": "No"}, {"ItemOID": "IT.TR.TRREASND", "OrderNumber": 10, "Mandatory": "No"}, {"ItemOID": "IT.TR.TREVAL", "OrderNumber": 11, "Mandatory": "No"}, {"ItemOID": "IT.TR.TREVALID", "OrderNumber": 12, "Mandatory": "No"}, {"ItemOID": "IT.TR.TRDAT", "OrderNumber": 13, "Mandatory": "No"}, {"ItemOID": "IT.TR.TRLNKID", "OrderNumber": 14, "Mandatory": "No"}, {"ItemOID": "IT.TR.TRTEST", "OrderNumber": 15, "Mandatory": "No"}, {"ItemOID": "IT.TR.TRORRES", "OrderNumber": 16, "Mandatory": "No"}, {"ItemOID": "IT.TR.TRORRESU", "OrderNumber": 17, "Mandatory": "No"}, {"ItemOID": "IT.TR.TRNAM", "OrderNumber": 18, "Mandatory": "No"}], "Class": {"Name": "FINDINGS"}}, {"OID": "IGD.TU", "Name": "TU", "Domain": "TU", "Repeating": "No", "Purpose": "Data Collection", "Description": {"TranslatedText": [{"lang": "en", "_content": "Tumor/Lesion Identification"}]}, "ItemRef": [{"ItemOID": "IT.TU.STUDYID", "OrderNumber": 1, "Mandatory": "No"}, {"ItemOID": "IT.TU.SITEID", "OrderNumber": 2, "Mandatory": "No"}, {"ItemOID": "IT.TU.SUBJID", "OrderNumber": 3, "Mandatory": "No"}, {"ItemOID": "IT.TU.VISIT", "OrderNumber": 4, "Mandatory": "No"}, {"ItemOID": "IT.TU.VISDAT", "OrderNumber": 5, "Mandatory": "No"}, {"ItemOID": "IT.TU.TUCAT", "OrderNumber": 6, "Mandatory": "No"}, {"ItemOID": "IT.TU.TUSCAT", "OrderNumber": 7, "Mandatory": "No"}, {"ItemOID": "IT.TU.TUYN", "OrderNumber": 8, "Mandatory": "No"}, {"ItemOID": "IT.TU.TUDAT", "OrderNumber": 9, "Mandatory": "No"}, {"ItemOID": "IT.TU.TUEVAL", "OrderNumber": 10, "Mandatory": "No"}, {"ItemOID": "IT.TU.TUEVALID", "OrderNumber": 11, "Mandatory": "No"}, {"ItemOID": "IT.TU.TULNKID", "OrderNumber": 12, "Mandatory": "No"}, {"ItemOID": "IT.TU.TUPRNO", "OrderNumber": 13, "Mandatory": "No"}, {"ItemOID": "IT.TU.TUMETHOD", "OrderNumber": 14, "Mandatory": "No"}, {"ItemOID": "IT.TU.TUREFID", "OrderNumber": 15, "Mandatory": "No"}, {"ItemOID": "IT.TU.TUTEST", "OrderNumber": 16, "Mandatory": "No"}, {"ItemOID": "IT.TU.TUORRES", "OrderNumber": 17, "Mandatory": "No"}, {"ItemOID": "IT.TU.TULOC", "OrderNumber": 18, "Mandatory": "No"}, {"ItemOID": "IT.TU.TULAT", "OrderNumber": 19, "Mandatory": "No"}, {"ItemOID": "IT.TU.TUDIR", "OrderNumber": 20, "Mandatory": "No"}, {"ItemOID": "IT.TU.TULOCDTL", "OrderNumber": 21, "Mandatory": "No"}, {"ItemOID": "IT.TU.TUNAM", "OrderNumber": 22, "Mandatory": "No"}], "Class": {"Name": "FINDINGS"}}, {"OID": "IGD.VS", "Name": "VS", "Domain": "VS", "Repeating": "No", "Purpose": "Data Collection", "Description": {"TranslatedText": [{"lang": "en", "_content": "Vital Signs"}]}, "ItemRef": [{"ItemOID": "IT.VS.STUDYID", "OrderNumber": 1, "Mandatory": "No"}, {"ItemOID": "IT.VS.SITEID", "OrderNumber": 2, "Mandatory": "No"}, {"ItemOID": "IT.VS.SUBJID", "OrderNumber": 3, "Mandatory": "No"}, {"ItemOID": "IT.VS.VISIT", "OrderNumber": 4, "Mandatory": "No"}, {"ItemOID": "IT.VS.VISDAT", "OrderNumber": 5, "Mandatory": "No"}, {"ItemOID": "IT.VS.VSPERF", "OrderNumber": 6, "Mandatory": "No"}, {"ItemOID": "IT.VS.VSDAT", "OrderNumber": 7, "Mandatory": "No"}, {"ItemOID": "IT.VS.VSTIM", "OrderNumber": 8, "Mandatory": "No"}, {"ItemOID": "IT.VS.VSSPID", "OrderNumber": 9, "Mandatory": "No"}, {"ItemOID": "IT.VS.VSTPT", "OrderNumber": 10, "Mandatory": "No"}, {"ItemOID": "IT.VS.VSCAT", "OrderNumber": 11, "Mandatory": "No"}, {"ItemOID": "IT.VS.VSSCAT", "OrderNumber": 12, "Mandatory": "No"}, {"ItemOID": "IT.VS.VSREPNUM", "OrderNumber": 13, "Mandatory": "No"}, {"ItemOID": "IT.VS.VSTEST", "OrderNumber": 14, "Mandatory": "No"}, {"ItemOID": "IT.VS.VSSTAT", "OrderNumber": 15, "Mandatory": "No"}, {"ItemOID": "IT.VS.VSORRES", "OrderNumber": 16, "Mandatory": "No"}, {"ItemOID": "IT.VS.VSORRESU", "OrderNumber": 17, "Mandatory": "No"}, {"ItemOID": "IT.VS.VSCLSIG", "OrderNumber": 18, "Mandatory": "No"}, {"ItemOID": "IT.VS.VSLOC", "OrderNumber": 19, "Mandatory": "No"}, {"ItemOID": "IT.VS.VSPOS", "OrderNumber": 20, "Mandatory": "No"}, {"ItemOID": "IT.VS.VSDIR", "OrderNumber": 21, "Mandatory": "No"}, {"ItemOID": "IT.VS.VSLAT", "OrderNumber": 22, "Mandatory": "No"}], "Class": {"Name": "FINDINGS"}}, {"OID": "IGD.CO", "Name": "CO", "Domain": "CO", "Repeating": "No", "Purpose": "Data Collection", "Description": {"TranslatedText": [{"lang": "en", "_content": "Comments"}]}, "ItemRef": [{"ItemOID": "IT.CO.STUDYID", "OrderNumber": 1, "Mandatory": "No"}, {"ItemOID": "IT.CO.SITEID", "OrderNumber": 2, "Mandatory": "No"}, {"ItemOID": "IT.CO.SUBJID", "OrderNumber": 3, "Mandatory": "No"}, {"ItemOID": "IT.CO.COVAL", "OrderNumber": 4, "Mandatory": "No"}], "Class": {"Name": "SPECIAL PURPOSE"}}, {"OID": "IGD.DM", "Name": "DM", "Domain": "DM", "Repeating": "No", "Purpose": "Data Collection", "Description": {"TranslatedText": [{"lang": "en", "_content": "Demographics"}]}, "Class": {"Name": "SPECIAL PURPOSE"}}, {"OID": "IGD.DS.ProtocolMilestone", "Name": "DS.ProtocolMilestone", "Domain": "Disposition", "Repeating": "No", "Purpose": "Data Collection", "Description": {"TranslatedText": [{"lang": "en"}]}, "ItemRef": [{"ItemOID": "IT.DS.ProtocolMilestone.STUDYID", "OrderNumber": 1, "Mandatory": "No"}, {"ItemOID": "IT.DS.ProtocolMilestone.SITEID", "OrderNumber": 2, "Mandatory": "No"}, {"ItemOID": "IT.DS.ProtocolMilestone.SUBJID", "OrderNumber": 3, "Mandatory": "No"}, {"ItemOID": "IT.DS.ProtocolMilestone.DSCAT", "OrderNumber": 4, "Mandatory": "No"}, {"ItemOID": "IT.DS.ProtocolMilestone.DSSCAT", "OrderNumber": 5, "Mandatory": "No"}, {"ItemOID": "IT.DS.ProtocolMilestone.EPOCH", "OrderNumber": 6, "Mandatory": "No"}, {"ItemOID": "IT.DS.ProtocolMilestone.DSDECOD", "OrderNumber": 7, "Mandatory": "No"}, {"ItemOID": "IT.DS.ProtocolMilestone.DSTERM", "OrderNumber": 8, "Mandatory": "No"}, {"ItemOID": "IT.DS.ProtocolMilestone.DSSTDAT", "OrderNumber": 9, "Mandatory": "No"}, {"ItemOID": "IT.DS.ProtocolMilestone.DSSTTIM", "OrderNumber": 10, "Mandatory": "No"}, {"ItemOID": "IT.DS.ProtocolMilestone.DSUNBLND", "OrderNumber": 11, "Mandatory": "No"}], "Class": {"Name": "EVENTS"}}, {"OID": "IGD.DS.StudyParticipation", "Name": "DS.StudyParticipation", "Domain": "Disposition", "Repeating": "No", "Purpose": "Data Collection", "Description": {"TranslatedText": [{"lang": "en"}]}, "ItemRef": [{"ItemOID": "IT.DS.StudyParticipation.STUDYID", "OrderNumber": 1, "Mandatory": "No"}, {"ItemOID": "IT.DS.StudyParticipation.SITEID", "OrderNumber": 2, "Mandatory": "No"}, {"ItemOID": "IT.DS.StudyParticipation.SUBJID", "OrderNumber": 3, "Mandatory": "No"}, {"ItemOID": "IT.DS.StudyParticipation.DSCAT", "OrderNumber": 4, "Mandatory": "No"}, {"ItemOID": "IT.DS.StudyParticipation.DSSCAT", "OrderNumber": 5, "Mandatory": "No"}, {"ItemOID": "IT.DS.StudyParticipation.EPOCH", "OrderNumber": 6, "Mandatory": "No"}, {"ItemOID": "IT.DS.StudyParticipation.DSDECOD", "OrderNumber": 7, "Mandatory": "No"}, {"ItemOID": "IT.DS.StudyParticipation.DSTERM", "OrderNumber": 8, "Mandatory": "No"}, {"ItemOID": "IT.DS.StudyParticipation.DSSTDAT", "OrderNumber": 9, "Mandatory": "No"}, {"ItemOID": "IT.DS.StudyParticipation.DSSTTIM", "OrderNumber": 10, "Mandatory": "No"}, {"ItemOID": "IT.DS.StudyParticipation.DTHDAT", "OrderNumber": 11, "Mandatory": "No"}, {"ItemOID": "IT.DS.StudyParticipation.DSCONT", "OrderNumber": 12, "Mandatory": "No"}, {"ItemOID": "IT.DS.StudyParticipation.DSNEXT", "OrderNumber": 13, "Mandatory": "No"}], "Class": {"Name": "EVENTS"}}, {"OID": "IGD.DA.HorizontalGeneric", "Name": "DA.HorizontalGeneric", "Domain": "Drug Accountability", "Repeating": "No", "Purpose": "Data Collection", "Description": {"TranslatedText": [{"lang": "en"}]}, "ItemRef": [{"ItemOID": "IT.DA.STUDYID", "OrderNumber": 1, "Mandatory": "No"}, {"ItemOID": "IT.DA.SITEID", "OrderNumber": 2, "Mandatory": "No"}, {"ItemOID": "IT.DA.SUBJID", "OrderNumber": 3, "Mandatory": "No"}, {"ItemOID": "IT.DA.VISIT", "OrderNumber": 4, "Mandatory": "No"}, {"ItemOID": "IT.DA.VISDAT", "OrderNumber": 5, "Mandatory": "No"}, {"ItemOID": "IT.DA.DAPERF", "OrderNumber": 6, "Mandatory": "No"}, {"ItemOID": "IT.DA.DACAT", "OrderNumber": 7, "Mandatory": "No"}, {"ItemOID": "IT.DA.DASCAT", "OrderNumber": 8, "Mandatory": "No"}, {"ItemOID": "IT.DA.DADAT", "OrderNumber": 9, "Mandatory": "No"}, {"ItemOID": "IT.DA.DAREFID", "OrderNumber": 10, "Mandatory": "No"}, {"ItemOID": "IT.DA.DATEST", "OrderNumber": 11, "Mandatory": "No"}, {"ItemOID": "IT.DA.DAORRES", "OrderNumber": 12, "Mandatory": "No"}, {"ItemOID": "IT.DA.DAORRESU", "OrderNumber": 13, "Mandatory": "No"}, {"ItemOID": "IT.DA.HorizontalGeneric.STUDYID", "OrderNumber": 14, "Mandatory": "No"}, {"ItemOID": "IT.DA.HorizontalGeneric.SITEID", "OrderNumber": 15, "Mandatory": "No"}, {"ItemOID": "IT.DA.HorizontalGeneric.SUBJID", "OrderNumber": 16, "Mandatory": "No"}, {"ItemOID": "IT.DA.HorizontalGeneric.VISIT", "OrderNumber": 17, "Mandatory": "No"}, {"ItemOID": "IT.DA.HorizontalGeneric.VISDAT", "OrderNumber": 18, "Mandatory": "No"}, {"ItemOID": "IT.DA.HorizontalGeneric.DAGRPID", "OrderNumber": 19, "Mandatory": "No"}, {"ItemOID": "IT.DA.HorizontalGeneric.[DATESTCD]_DAPERF", "OrderNumber": 20, "Mandatory": "No"}, {"ItemOID": "IT.DA.HorizontalGeneric.[DATESTCD]_DACAT", "OrderNumber": 21, "Mandatory": "No"}, {"ItemOID": "IT.DA.HorizontalGeneric.[DATESTCD]_DASCAT", "OrderNumber": 22, "Mandatory": "No"}, {"ItemOID": "IT.DA.HorizontalGeneric.[DATESTCD]_DAREFID", "OrderNumber": 23, "Mandatory": "No"}, {"ItemOID": "IT.DA.HorizontalGeneric.[DATESTCD]_DADAT", "OrderNumber": 24, "Mandatory": "No"}, {"ItemOID": "IT.DA.HorizontalGeneric.[DATESTCD]_DAORRES", "OrderNumber": 25, "Mandatory": "No"}, {"ItemOID": "IT.DA.HorizontalGeneric.[DATESTCD]_DAORRESU", "OrderNumber": 26, "Mandatory": "No"}], "Class": {"Name": "FINDINGS"}}, {"OID": "IGD.DD.HorizontalGeneric", "Name": "DD.HorizontalGeneric", "Domain": "Death Details", "Repeating": "No", "Purpose": "Data Collection", "Description": {"TranslatedText": [{"lang": "en"}]}, "ItemRef": [{"ItemOID": "IT.DD.STUDYID", "OrderNumber": 1, "Mandatory": "No"}, {"ItemOID": "IT.DD.SITEID", "OrderNumber": 2, "Mandatory": "No"}, {"ItemOID": "IT.DD.SUBJID", "OrderNumber": 3, "Mandatory": "No"}, {"ItemOID": "IT.DD.VISIT", "OrderNumber": 4, "Mandatory": "No"}, {"ItemOID": "IT.DD.VISDAT", "OrderNumber": 5, "Mandatory": "No"}, {"ItemOID": "IT.DD.DDCAT", "OrderNumber": 6, "Mandatory": "No"}, {"ItemOID": "IT.DD.DDSCAT", "OrderNumber": 7, "Mandatory": "No"}, {"ItemOID": "IT.DD.DDYN", "OrderNumber": 8, "Mandatory": "No"}, {"ItemOID": "IT.DD.DDDAT", "OrderNumber": 9, "Mandatory": "No"}, {"ItemOID": "IT.DD.DDSPID", "OrderNumber": 10, "Mandatory": "No"}, {"ItemOID": "IT.DD.DTHDAT", "OrderNumber": 11, "Mandatory": "No"}, {"ItemOID": "IT.DD.DDTEST", "OrderNumber": 12, "Mandatory": "No"}, {"ItemOID": "IT.DD.DDORRES", "OrderNumber": 13, "Mandatory": "No"}, {"ItemOID": "IT.DD.DDEVAL", "OrderNumber": 14, "Mandatory": "No"}, {"ItemOID": "IT.DD.HorizontalGeneric.STUDYID", "OrderNumber": 15, "Mandatory": "No"}, {"ItemOID": "IT.DD.HorizontalGeneric.SITEID", "OrderNumber": 16, "Mandatory": "No"}, {"ItemOID": "IT.DD.HorizontalGeneric.SUBJID", "OrderNumber": 17, "Mandatory": "No"}, {"ItemOID": "IT.DD.HorizontalGeneric.VISIT", "OrderNumber": 18, "Mandatory": "No"}, {"ItemOID": "IT.DD.HorizontalGeneric.VISDAT", "OrderNumber": 19, "Mandatory": "No"}, {"ItemOID": "IT.DD.HorizontalGeneric.DDYN", "OrderNumber": 20, "Mandatory": "No"}, {"ItemOID": "IT.DD.HorizontalGeneric.DDCAT", "OrderNumber": 21, "Mandatory": "No"}, {"ItemOID": "IT.DD.HorizontalGeneric.DDSCAT", "OrderNumber": 22, "Mandatory": "No"}, {"ItemOID": "IT.DD.HorizontalGeneric.[DTHDXCD]_DDDAT", "OrderNumber": 23, "Mandatory": "No"}, {"ItemOID": "IT.DD.HorizontalGeneric.DTHDAT", "OrderNumber": 24, "Mandatory": "No"}, {"ItemOID": "IT.DD.HorizontalGeneric.[DTHDXCD]_DDORRES", "OrderNumber": 25, "Mandatory": "No"}, {"ItemOID": "IT.DD.HorizontalGeneric.DDEVAL", "OrderNumber": 26, "Mandatory": "No"}], "Class": {"Name": "FINDINGS"}}, {"OID": "IGD.EG.CentralReading", "Name": "EG.CentralReading", "Domain": "ECG", "Repeating": "No", "Purpose": "Data Collection", "Description": {"TranslatedText": [{"lang": "en"}]}, "ItemRef": [{"ItemOID": "IT.EG.CentralReading.STUDYID", "OrderNumber": 1, "Mandatory": "No"}, {"ItemOID": "IT.EG.CentralReading.SITEID", "OrderNumber": 2, "Mandatory": "No"}, {"ItemOID": "IT.EG.CentralReading.SUBJID", "OrderNumber": 3, "Mandatory": "No"}, {"ItemOID": "IT.EG.CentralReading.VISIT", "OrderNumber": 4, "Mandatory": "No"}, {"ItemOID": "IT.EG.CentralReading.VISDAT", "OrderNumber": 5, "Mandatory": "No"}, {"ItemOID": "IT.EG.CentralReading.EGCAT", "OrderNumber": 6, "Mandatory": "No"}, {"ItemOID": "IT.EG.CentralReading.EGSCAT", "OrderNumber": 7, "Mandatory": "No"}, {"ItemOID": "IT.EG.CentralReading.EGPERF", "OrderNumber": 8, "Mandatory": "No"}, {"ItemOID": "IT.EG.CentralReading.EGREPNUM", "OrderNumber": 9, "Mandatory": "No"}, {"ItemOID": "IT.EG.CentralReading.EGREFID", "OrderNumber": 10, "Mandatory": "No"}, {"ItemOID": "IT.EG.CentralReading.EGMETHOD", "OrderNumber": 11, "Mandatory": "No"}, {"ItemOID": "IT.EG.CentralReading.EGLEAD", "OrderNumber": 12, "Mandatory": "No"}, {"ItemOID": "IT.EG.CentralReading.EGPOS", "OrderNumber": 13, "Mandatory": "No"}, {"ItemOID": "IT.EG.CentralReading.EGDAT", "OrderNumber": 14, "Mandatory": "No"}, {"ItemOID": "IT.EG.CentralReading.EGTPT", "OrderNumber": 15, "Mandatory": "No"}, {"ItemOID": "IT.EG.CentralReading.EGTIM", "OrderNumber": 16, "Mandatory": "No"}], "Class": {"Name": "FINDINGS"}}, {"OID": "IGD.EG.LocalReading", "Name": "EG.LocalReading", "Domain": "ECG", "Repeating": "No", "Purpose": "Data Collection", "Description": {"TranslatedText": [{"lang": "en"}]}, "ItemRef": [{"ItemOID": "IT.EG.LocalReading.STUDYID", "OrderNumber": 1, "Mandatory": "No"}, {"ItemOID": "IT.EG.LocalReading.SITEID", "OrderNumber": 2, "Mandatory": "No"}, {"ItemOID": "IT.EG.LocalReading.SUBJID", "OrderNumber": 3, "Mandatory": "No"}, {"ItemOID": "IT.EG.LocalReading.VISIT", "OrderNumber": 4, "Mandatory": "No"}, {"ItemOID": "IT.EG.LocalReading.VISDAT", "OrderNumber": 5, "Mandatory": "No"}, {"ItemOID": "IT.EG.LocalReading.EGCAT", "OrderNumber": 6, "Mandatory": "No"}, {"ItemOID": "IT.EG.LocalReading.EGSCAT", "OrderNumber": 7, "Mandatory": "No"}, {"ItemOID": "IT.EG.LocalReading.EGPERF", "OrderNumber": 8, "Mandatory": "No"}, {"ItemOID": "IT.EG.LocalReading.EGREPNUM", "OrderNumber": 9, "Mandatory": "No"}, {"ItemOID": "IT.EG.LocalReading.EGMETHOD", "OrderNumber": 10, "Mandatory": "No"}, {"ItemOID": "IT.EG.LocalReading.EGLEAD", "OrderNumber": 11, "Mandatory": "No"}, {"ItemOID": "IT.EG.LocalReading.EGPOS", "OrderNumber": 12, "Mandatory": "No"}, {"ItemOID": "IT.EG.LocalReading.EGDAT", "OrderNumber": 13, "Mandatory": "No"}, {"ItemOID": "IT.EG.LocalReading.EGTPT", "OrderNumber": 14, "Mandatory": "No"}, {"ItemOID": "IT.EG.LocalReading.EGTIM", "OrderNumber": 15, "Mandatory": "No"}, {"ItemOID": "IT.EG.LocalReading.EGTEST", "OrderNumber": 16, "Mandatory": "No"}, {"ItemOID": "IT.EG.LocalReading.EGORRES", "OrderNumber": 17, "Mandatory": "No"}, {"ItemOID": "IT.EG.LocalReading.EGORRESU", "OrderNumber": 18, "Mandatory": "No"}, {"ItemOID": "IT.EG.LocalReading.EGCLSIG", "OrderNumber": 19, "Mandatory": "No"}], "Class": {"Name": "FINDINGS"}}, {"OID": "IGD.EG.CentralReadingIA", "Name": "EG.CentralReadingIA", "Domain": "ECG", "Repeating": "No", "Purpose": "Data Collection", "Description": {"TranslatedText": [{"lang": "en"}]}, "ItemRef": [{"ItemOID": "IT.EG.CentralReadingIA.STUDYID", "OrderNumber": 1, "Mandatory": "No"}, {"ItemOID": "IT.EG.CentralReadingIA.SITEID", "OrderNumber": 2, "Mandatory": "No"}, {"ItemOID": "IT.EG.CentralReadingIA.SUBJID", "OrderNumber": 3, "Mandatory": "No"}, {"ItemOID": "IT.EG.CentralReadingIA.VISIT", "OrderNumber": 4, "Mandatory": "No"}, {"ItemOID": "IT.EG.CentralReadingIA.VISDAT", "OrderNumber": 5, "Mandatory": "No"}, {"ItemOID": "IT.EG.CentralReadingIA.EGCAT", "OrderNumber": 6, "Mandatory": "No"}, {"ItemOID": "IT.EG.CentralReadingIA.EGSCAT", "OrderNumber": 7, "Mandatory": "No"}, {"ItemOID": "IT.EG.CentralReadingIA.EGPERF", "OrderNumber": 8, "Mandatory": "No"}, {"ItemOID": "IT.EG.CentralReadingIA.EGREPNUM", "OrderNumber": 9, "Mandatory": "No"}, {"ItemOID": "IT.EG.CentralReadingIA.EGREFID", "OrderNumber": 10, "Mandatory": "No"}, {"ItemOID": "IT.EG.CentralReadingIA.EGMETHOD", "OrderNumber": 11, "Mandatory": "No"}, {"ItemOID": "IT.EG.CentralReadingIA.EGLEAD", "OrderNumber": 12, "Mandatory": "No"}, {"ItemOID": "IT.EG.CentralReadingIA.EGPOS", "OrderNumber": 13, "Mandatory": "No"}, {"ItemOID": "IT.EG.CentralReadingIA.EGDAT", "OrderNumber": 14, "Mandatory": "No"}, {"ItemOID": "IT.EG.CentralReadingIA.EGTPT", "OrderNumber": 15, "Mandatory": "No"}, {"ItemOID": "IT.EG.CentralReadingIA.EGTIM", "OrderNumber": 16, "Mandatory": "No"}, {"ItemOID": "IT.EG.CentralReadingIA.EGEVAL", "OrderNumber": 17, "Mandatory": "No"}, {"ItemOID": "IT.EG.CentralReadingIA.INTP_EGORRES", "OrderNumber": 18, "Mandatory": "No"}, {"ItemOID": "IT.EG.CentralReadingIA.EGCLSIG", "OrderNumber": 19, "Mandatory": "No"}, {"ItemOID": "IT.EG.CentralReadingIA.EGMHNO", "OrderNumber": 20, "Mandatory": "No"}, {"ItemOID": "IT.EG.CentralReadingIA.EGAENO", "OrderNumber": 21, "Mandatory": "No"}], "Class": {"Name": "FINDINGS"}}, {"OID": "IGD.LB.CentralProcessing", "Name": "LB.CentralProcessing", "Domain": "Labs", "Repeating": "No", "Purpose": "Data Collection", "Description": {"TranslatedText": [{"lang": "en"}]}, "ItemRef": [{"ItemOID": "IT.LB.CentralProcessing.STUDYID", "OrderNumber": 1, "Mandatory": "No"}, {"ItemOID": "IT.LB.CentralProcessing.SITEID", "OrderNumber": 2, "Mandatory": "No"}, {"ItemOID": "IT.LB.CentralProcessing.SUBJID", "OrderNumber": 3, "Mandatory": "No"}, {"ItemOID": "IT.LB.CentralProcessing.VISIT", "OrderNumber": 4, "Mandatory": "No"}, {"ItemOID": "IT.LB.CentralProcessing.VISDAT", "OrderNumber": 5, "Mandatory": "No"}, {"ItemOID": "IT.LB.CentralProcessing.LBPERF", "OrderNumber": 6, "Mandatory": "No"}, {"ItemOID": "IT.LB.CentralProcessing.LBDAT", "OrderNumber": 7, "Mandatory": "No"}, {"ItemOID": "IT.LB.CentralProcessing.LBTIM", "OrderNumber": 8, "Mandatory": "No"}, {"ItemOID": "IT.LB.CentralProcessing.LBCAT", "OrderNumber": 9, "Mandatory": "No"}, {"ItemOID": "IT.LB.CentralProcessing.LBSCAT", "OrderNumber": 10, "Mandatory": "No"}, {"ItemOID": "IT.LB.CentralProcessing.LBTPT", "OrderNumber": 11, "Mandatory": "No"}, {"ItemOID": "IT.LB.CentralProcessing.LBCOND", "OrderNumber": 12, "Mandatory": "No"}, {"ItemOID": "IT.LB.CentralProcessing.LBFAST", "OrderNumber": 13, "Mandatory": "No"}, {"ItemOID": "IT.LB.CentralProcessing.LBREFID", "OrderNumber": 14, "Mandatory": "No"}], "Class": {"Name": "FINDINGS"}}, {"OID": "IGD.LB.CentralProcessingCS", "Name": "LB.CentralProcessingCS", "Domain": "Labs", "Repeating": "No", "Purpose": "Data Collection", "Description": {"TranslatedText": [{"lang": "en"}]}, "ItemRef": [{"ItemOID": "IT.LB.CentralProcessingCS.STUDYID", "OrderNumber": 1, "Mandatory": "No"}, {"ItemOID": "IT.LB.CentralProcessingCS.SITEID", "OrderNumber": 2, "Mandatory": "No"}, {"ItemOID": "IT.LB.CentralProcessingCS.SUBJID", "OrderNumber": 3, "Mandatory": "No"}, {"ItemOID": "IT.LB.CentralProcessingCS.VISIT", "OrderNumber": 4, "Mandatory": "No"}, {"ItemOID": "IT.LB.CentralProcessingCS.VISDAT", "OrderNumber": 5, "Mandatory": "No"}, {"ItemOID": "IT.LB.CentralProcessingCS.LBPERF", "OrderNumber": 6, "Mandatory": "No"}, {"ItemOID": "IT.LB.CentralProcessingCS.LBDAT", "OrderNumber": 7, "Mandatory": "No"}, {"ItemOID": "IT.LB.CentralProcessingCS.LBTIM", "OrderNumber": 8, "Mandatory": "No"}, {"ItemOID": "IT.LB.CentralProcessingCS.LBCAT", "OrderNumber": 9, "Mandatory": "No"}, {"ItemOID": "IT.LB.CentralProcessingCS.LBSCAT", "OrderNumber": 10, "Mandatory": "No"}, {"ItemOID": "IT.LB.CentralProcessingCS.LBTPT", "OrderNumber": 11, "Mandatory": "No"}, {"ItemOID": "IT.LB.CentralProcessingCS.LBCOND", "OrderNumber": 12, "Mandatory": "No"}, {"ItemOID": "IT.LB.CentralProcessingCS.LBFAST", "OrderNumber": 13, "Mandatory": "No"}, {"ItemOID": "IT.LB.CentralProcessingCS.LBTEST", "OrderNumber": 14, "Mandatory": "No"}, {"ItemOID": "IT.LB.CentralProcessingCS.LBORRES", "OrderNumber": 15, "Mandatory": "No"}, {"ItemOID": "IT.LB.CentralProcessingCS.LBORRESU", "OrderNumber": 16, "Mandatory": "No"}, {"ItemOID": "IT.LB.CentralProcessingCS.LBCLSIG", "OrderNumber": 17, "Mandatory": "No"}, {"ItemOID": "IT.LB.CentralProcessingCS.LBREFID", "OrderNumber": 18, "Mandatory": "No"}, {"ItemOID": "IT.LB.CentralProcessingCS.LBMETHOD", "OrderNumber": 19, "Mandatory": "No"}], "Class": {"Name": "FINDINGS"}}, {"OID": "IGD.LB.LocalProcessing", "Name": "LB.LocalProcessing", "Domain": "Labs", "Repeating": "No", "Purpose": "Data Collection", "Description": {"TranslatedText": [{"lang": "en"}]}, "ItemRef": [{"ItemOID": "IT.LB.LocalProcessing.STUDYID", "OrderNumber": 1, "Mandatory": "No"}, {"ItemOID": "IT.LB.LocalProcessing.SITEID", "OrderNumber": 2, "Mandatory": "No"}, {"ItemOID": "IT.LB.LocalProcessing.SUBJID", "OrderNumber": 3, "Mandatory": "No"}, {"ItemOID": "IT.LB.LocalProcessing.VISIT", "OrderNumber": 4, "Mandatory": "No"}, {"ItemOID": "IT.LB.LocalProcessing.VISDAT", "OrderNumber": 5, "Mandatory": "No"}, {"ItemOID": "IT.LB.LocalProcessing.LBPERF", "OrderNumber": 6, "Mandatory": "No"}, {"ItemOID": "IT.LB.LocalProcessing.LBDAT", "OrderNumber": 7, "Mandatory": "No"}, {"ItemOID": "IT.LB.LocalProcessing.LBTIM", "OrderNumber": 8, "Mandatory": "No"}, {"ItemOID": "IT.LB.LocalProcessing.LBCAT", "OrderNumber": 9, "Mandatory": "No"}, {"ItemOID": "IT.LB.LocalProcessing.LBSCAT", "OrderNumber": 10, "Mandatory": "No"}, {"ItemOID": "IT.LB.LocalProcessing.LBTPT", "OrderNumber": 11, "Mandatory": "No"}, {"ItemOID": "IT.LB.LocalProcessing.LBFAST", "OrderNumber": 12, "Mandatory": "No"}, {"ItemOID": "IT.LB.LocalProcessing.LBCOND", "OrderNumber": 13, "Mandatory": "No"}, {"ItemOID": "IT.LB.LocalProcessing.LBSPCCND", "OrderNumber": 14, "Mandatory": "No"}, {"ItemOID": "IT.LB.LocalProcessing.LBTEST", "OrderNumber": 15, "Mandatory": "No"}, {"ItemOID": "IT.LB.LocalProcessing.LBORRES", "OrderNumber": 16, "Mandatory": "No"}, {"ItemOID": "IT.LB.LocalProcessing.LBMETHOD", "OrderNumber": 17, "Mandatory": "No"}, {"ItemOID": "IT.LB.LocalProcessing.LBORRESU", "OrderNumber": 18, "Mandatory": "No"}, {"ItemOID": "IT.LB.LocalProcessing.LBCRESU", "OrderNumber": 19, "Mandatory": "No"}, {"ItemOID": "IT.LB.LocalProcessing.LBTOXGR", "OrderNumber": 20, "Mandatory": "No"}, {"ItemOID": "IT.LB.LocalProcessing.LBTOX", "OrderNumber": 21, "Mandatory": "No"}, {"ItemOID": "IT.LB.LocalProcessing.LBORNRLO", "OrderNumber": 22, "Mandatory": "No"}, {"ItemOID": "IT.LB.LocalProcessing.LBORNRHI", "OrderNumber": 23, "Mandatory": "No"}, {"ItemOID": "IT.LB.LocalProcessing.LBNRIND", "OrderNumber": 24, "Mandatory": "No"}, {"ItemOID": "IT.LB.LocalProcessing.LBCLSIG", "OrderNumber": 25, "Mandatory": "No"}, {"ItemOID": "IT.LB.LocalProcessing.LBNAM", "OrderNumber": 26, "Mandatory": "No"}], "Class": {"Name": "FINDINGS"}}, {"OID": "IGD.MB.CentralProcessing", "Name": "MB.CentralProcessing", "Domain": "Microbiology Specimen", "Repeating": "No", "Purpose": "Data Collection", "Description": {"TranslatedText": [{"lang": "en"}]}, "ItemRef": [{"ItemOID": "IT.MB.CentralProcessing.STUDYID", "OrderNumber": 1, "Mandatory": "No"}, {"ItemOID": "IT.MB.CentralProcessing.SITEID", "OrderNumber": 2, "Mandatory": "No"}, {"ItemOID": "IT.MB.CentralProcessing.SUBJID", "OrderNumber": 3, "Mandatory": "No"}, {"ItemOID": "IT.MB.CentralProcessing.VISIT", "OrderNumber": 4, "Mandatory": "No"}, {"ItemOID": "IT.MB.CentralProcessing.VISDAT", "OrderNumber": 5, "Mandatory": "No"}, {"ItemOID": "IT.MB.CentralProcessing.MBPERF", "OrderNumber": 6, "Mandatory": "No"}, {"ItemOID": "IT.MB.CentralProcessing.MBREFID", "OrderNumber": 7, "Mandatory": "No"}, {"ItemOID": "IT.MB.CentralProcessing.MBGRPID", "OrderNumber": 8, "Mandatory": "No"}, {"ItemOID": "IT.MB.CentralProcessing.MBDAT", "OrderNumber": 9, "Mandatory": "No"}, {"ItemOID": "IT.MB.CentralProcessing.MBTIM", "OrderNumber": 10, "Mandatory": "No"}, {"ItemOID": "IT.MB.CentralProcessing.MBCAT", "OrderNumber": 11, "Mandatory": "No"}, {"ItemOID": "IT.MB.CentralProcessing.MBSCAT", "OrderNumber": 12, "Mandatory": "No"}, {"ItemOID": "IT.MB.CentralProcessing.MBSPEC", "OrderNumber": 13, "Mandatory": "No"}, {"ItemOID": "IT.MB.CentralProcessing.MBSPCCND", "OrderNumber": 14, "Mandatory": "No"}, {"ItemOID": "IT.MB.CentralProcessing.MBLOC", "OrderNumber": 15, "Mandatory": "No"}, {"ItemOID": "IT.MB.CentralProcessing.MBLAT", "OrderNumber": 16, "Mandatory": "No"}, {"ItemOID": "IT.MB.CentralProcessing.MBDIR", "OrderNumber": 17, "Mandatory": "No"}], "Class": {"Name": "FINDINGS"}}, {"OID": "IGD.MB.LocalProcessing", "Name": "MB.LocalProcessing", "Domain": "Microbiology Specimen", "Repeating": "No", "Purpose": "Data Collection", "Description": {"TranslatedText": [{"lang": "en"}]}, "ItemRef": [{"ItemOID": "IT.MB.LocalProcessing.STUDYID", "OrderNumber": 1, "Mandatory": "No"}, {"ItemOID": "IT.MB.LocalProcessing.SITEID", "OrderNumber": 2, "Mandatory": "No"}, {"ItemOID": "IT.MB.LocalProcessing.SUBJID", "OrderNumber": 3, "Mandatory": "No"}, {"ItemOID": "IT.MB.LocalProcessing.VISIT", "OrderNumber": 4, "Mandatory": "No"}, {"ItemOID": "IT.MB.LocalProcessing.VISDAT", "OrderNumber": 5, "Mandatory": "No"}, {"ItemOID": "IT.MB.LocalProcessing.MBPERF", "OrderNumber": 6, "Mandatory": "No"}, {"ItemOID": "IT.MB.LocalProcessing.MBREFID", "OrderNumber": 7, "Mandatory": "No"}, {"ItemOID": "IT.MB.LocalProcessing.MBSPID", "OrderNumber": 8, "Mandatory": "No"}, {"ItemOID": "IT.MB.LocalProcessing.MBGRPID", "OrderNumber": 9, "Mandatory": "No"}, {"ItemOID": "IT.MB.LocalProcessing.MBLNKID", "OrderNumber": 10, "Mandatory": "No"}, {"ItemOID": "IT.MB.LocalProcessing.MBDAT", "OrderNumber": 11, "Mandatory": "No"}, {"ItemOID": "IT.MB.LocalProcessing.MBTIM", "OrderNumber": 12, "Mandatory": "No"}, {"ItemOID": "IT.MB.LocalProcessing.MBCAT", "OrderNumber": 13, "Mandatory": "No"}, {"ItemOID": "IT.MB.LocalProcessing.MBSCAT", "OrderNumber": 14, "Mandatory": "No"}, {"ItemOID": "IT.MB.LocalProcessing.MBTEST", "OrderNumber": 15, "Mandatory": "No"}, {"ItemOID": "IT.MB.LocalProcessing.MBTSTDTL", "OrderNumber": 16, "Mandatory": "No"}, {"ItemOID": "IT.MB.LocalProcessing.MBORRES", "OrderNumber": 17, "Mandatory": "No"}, {"ItemOID": "IT.MB.LocalProcessing.MBORRESU", "OrderNumber": 18, "Mandatory": "No"}, {"ItemOID": "IT.MB.LocalProcessing.MBCLSIG", "OrderNumber": 19, "Mandatory": "No"}, {"ItemOID": "IT.MB.LocalProcessing.MBRESCAT", "OrderNumber": 20, "Mandatory": "No"}, {"ItemOID": "IT.MB.LocalProcessing.MBNAM", "OrderNumber": 21, "Mandatory": "No"}, {"ItemOID": "IT.MB.LocalProcessing.MBSPEC", "OrderNumber": 22, "Mandatory": "No"}, {"ItemOID": "IT.MB.LocalProcessing.MBSPCCND", "OrderNumber": 23, "Mandatory": "No"}, {"ItemOID": "IT.MB.LocalProcessing.MBLOC", "OrderNumber": 24, "Mandatory": "No"}, {"ItemOID": "IT.MB.LocalProcessing.MBLAT", "OrderNumber": 25, "Mandatory": "No"}, {"ItemOID": "IT.MB.LocalProcessing.MBDIR", "OrderNumber": 26, "Mandatory": "No"}, {"ItemOID": "IT.MB.LocalProcessing.MBMETHOD", "OrderNumber": 27, "Mandatory": "No"}, {"ItemOID": "IT.MB.LocalProcessing.MBEVAL", "OrderNumber": 28, "Mandatory": "No"}], "Class": {"Name": "FINDINGS"}}, {"OID": "IGD.MS.CentralProcessing", "Name": "MS.CentralProcessing", "Domain": "Microbiology Susceptibility Test", "Repeating": "No", "Purpose": "Data Collection", "Description": {"TranslatedText": [{"lang": "en"}]}, "ItemRef": [{"ItemOID": "IT.MS.CentralProcessing.STUDYID", "OrderNumber": 1, "Mandatory": "No"}, {"ItemOID": "IT.MS.CentralProcessing.SITEID", "OrderNumber": 2, "Mandatory": "No"}, {"ItemOID": "IT.MS.CentralProcessing.SUBJID", "OrderNumber": 3, "Mandatory": "No"}, {"ItemOID": "IT.MS.CentralProcessing.VISIT", "OrderNumber": 4, "Mandatory": "No"}, {"ItemOID": "IT.MS.CentralProcessing.VISDAT", "OrderNumber": 5, "Mandatory": "No"}, {"ItemOID": "IT.MS.CentralProcessing.MSPERF", "OrderNumber": 6, "Mandatory": "No"}, {"ItemOID": "IT.MS.CentralProcessing.MSREFID", "OrderNumber": 7, "Mandatory": "No"}, {"ItemOID": "IT.MS.CentralProcessing.MSDAT", "OrderNumber": 8, "Mandatory": "No"}, {"ItemOID": "IT.MS.CentralProcessing.MSTIM", "OrderNumber": 9, "Mandatory": "No"}, {"ItemOID": "IT.MS.CentralProcessing.MSCAT", "OrderNumber": 10, "Mandatory": "No"}, {"ItemOID": "IT.MS.CentralProcessing.MSSCAT", "OrderNumber": 11, "Mandatory": "No"}, {"ItemOID": "IT.MS.CentralProcessing.MSSPEC", "OrderNumber": 12, "Mandatory": "No"}, {"ItemOID": "IT.MS.CentralProcessing.MSSPCCND", "OrderNumber": 13, "Mandatory": "No"}, {"ItemOID": "IT.MS.CentralProcessing.MSLOC", "OrderNumber": 14, "Mandatory": "No"}, {"ItemOID": "IT.MS.CentralProcessing.MSLAT", "OrderNumber": 15, "Mandatory": "No"}, {"ItemOID": "IT.MS.CentralProcessing.MSDIR", "OrderNumber": 16, "Mandatory": "No"}], "Class": {"Name": "FINDINGS"}}, {"OID": "IGD.MS.LocalProcessing", "Name": "MS.LocalProcessing", "Domain": "Microbiology Susceptibility Test", "Repeating": "No", "Purpose": "Data Collection", "Description": {"TranslatedText": [{"lang": "en"}]}, "ItemRef": [{"ItemOID": "IT.MS.LocalProcessing.STUDYID", "OrderNumber": 1, "Mandatory": "No"}, {"ItemOID": "IT.MS.LocalProcessing.SITEID", "OrderNumber": 2, "Mandatory": "No"}, {"ItemOID": "IT.MS.LocalProcessing.SUBJID", "OrderNumber": 3, "Mandatory": "No"}, {"ItemOID": "IT.MS.LocalProcessing.NHOID", "OrderNumber": 4, "Mandatory": "No"}, {"ItemOID": "IT.MS.LocalProcessing.VISIT", "OrderNumber": 5, "Mandatory": "No"}, {"ItemOID": "IT.MS.LocalProcessing.VISDAT", "OrderNumber": 6, "Mandatory": "No"}, {"ItemOID": "IT.MS.LocalProcessing.MSPERF", "OrderNumber": 7, "Mandatory": "No"}, {"ItemOID": "IT.MS.LocalProcessing.MSREFID", "OrderNumber": 8, "Mandatory": "No"}, {"ItemOID": "IT.MS.LocalProcessing.MSSPID", "OrderNumber": 9, "Mandatory": "No"}, {"ItemOID": "IT.MS.LocalProcessing.MSGRPID", "OrderNumber": 8, "Mandatory": "No"}, {"ItemOID": "IT.MS.LocalProcessing.MSLNKID", "OrderNumber": 10, "Mandatory": "No"}, {"ItemOID": "IT.MS.LocalProcessing.MSDAT", "OrderNumber": 11, "Mandatory": "No"}, {"ItemOID": "IT.MS.LocalProcessing.MSTIM", "OrderNumber": 12, "Mandatory": "No"}, {"ItemOID": "IT.MS.LocalProcessing.MSCAT", "OrderNumber": 13, "Mandatory": "No"}, {"ItemOID": "IT.MS.LocalProcessing.MSSCAT", "OrderNumber": 14, "Mandatory": "No"}, {"ItemOID": "IT.MS.LocalProcessing.MSTEST", "OrderNumber": 15, "Mandatory": "No"}, {"ItemOID": "IT.MS.LocalProcessing.MSTSTDTL", "OrderNumber": 16, "Mandatory": "No"}, {"ItemOID": "IT.MS.LocalProcessing.MSAGENT", "OrderNumber": 17, "Mandatory": "No"}, {"ItemOID": "IT.MS.LocalProcessing.MSCONC", "OrderNumber": 18, "Mandatory": "No"}, {"ItemOID": "IT.MS.LocalProcessing.MSCONCU", "OrderNumber": 19, "Mandatory": "No"}, {"ItemOID": "IT.MS.LocalProcessing.MSORRES", "OrderNumber": 20, "Mandatory": "No"}, {"ItemOID": "IT.MS.LocalProcessing.MSORRESU", "OrderNumber": 21, "Mandatory": "No"}, {"ItemOID": "IT.MS.LocalProcessing.MSCLSIG", "OrderNumber": 22, "Mandatory": "No"}, {"ItemOID": "IT.MS.LocalProcessing.MSRESCAT", "OrderNumber": 23, "Mandatory": "No"}, {"ItemOID": "IT.MS.LocalProcessing.MSNAM", "OrderNumber": 24, "Mandatory": "No"}, {"ItemOID": "IT.MS.LocalProcessing.MSSPEC", "OrderNumber": 25, "Mandatory": "No"}, {"ItemOID": "IT.MS.LocalProcessing.MSSPCCND", "OrderNumber": 26, "Mandatory": "No"}, {"ItemOID": "IT.MS.LocalProcessing.MSLOC", "OrderNumber": 27, "Mandatory": "No"}, {"ItemOID": "IT.MS.LocalProcessing.MSLAT", "OrderNumber": 28, "Mandatory": "No"}, {"ItemOID": "IT.MS.LocalProcessing.MSDIR", "OrderNumber": 29, "Mandatory": "No"}, {"ItemOID": "IT.MS.LocalProcessing.MSMETHOD", "OrderNumber": 30, "Mandatory": "No"}, {"ItemOID": "IT.MS.LocalProcessing.MSEVAL", "OrderNumber": 31, "Mandatory": "No"}], "Class": {"Name": "FINDINGS"}}, {"OID": "IGD.MI.CentralProcessing", "Name": "MI.CentralProcessing", "Domain": "Microscopic Findings", "Repeating": "No", "Purpose": "Data Collection", "Description": {"TranslatedText": [{"lang": "en"}]}, "ItemRef": [{"ItemOID": "IT.MI.CentralProcessing.STUDYID", "OrderNumber": 1, "Mandatory": "No"}, {"ItemOID": "IT.MI.CentralProcessing.SITEID", "OrderNumber": 2, "Mandatory": "No"}, {"ItemOID": "IT.MI.CentralProcessing.SUBJID", "OrderNumber": 3, "Mandatory": "No"}, {"ItemOID": "IT.MI.CentralProcessing.VISIT", "OrderNumber": 4, "Mandatory": "No"}, {"ItemOID": "IT.MI.CentralProcessing.VISDAT", "OrderNumber": 5, "Mandatory": "No"}, {"ItemOID": "IT.MI.CentralProcessing.MIPERF", "OrderNumber": 6, "Mandatory": "No"}, {"ItemOID": "IT.MI.CentralProcessing.MIREFID", "OrderNumber": 7, "Mandatory": "No"}, {"ItemOID": "IT.MI.CentralProcessing.MIDAT", "OrderNumber": 8, "Mandatory": "No"}, {"ItemOID": "IT.MI.CentralProcessing.MITIM", "OrderNumber": 9, "Mandatory": "No"}, {"ItemOID": "IT.MI.CentralProcessing.MICAT", "OrderNumber": 10, "Mandatory": "No"}, {"ItemOID": "IT.MI.CentralProcessing.MISCAT", "OrderNumber": 11, "Mandatory": "No"}, {"ItemOID": "IT.MI.CentralProcessing.MISPEC", "OrderNumber": 12, "Mandatory": "No"}, {"ItemOID": "IT.MI.CentralProcessing.MISPCCND", "OrderNumber": 13, "Mandatory": "No"}, {"ItemOID": "IT.MI.CentralProcessing.MILOC", "OrderNumber": 14, "Mandatory": "No"}, {"ItemOID": "IT.MI.CentralProcessing.MILAT", "OrderNumber": 15, "Mandatory": "No"}, {"ItemOID": "IT.MI.CentralProcessing.MIDIR", "OrderNumber": 16, "Mandatory": "No"}], "Class": {"Name": "FINDINGS"}}, {"OID": "IGD.MI.LocalProcessing", "Name": "MI.LocalProcessing", "Domain": "Microscopic Findings", "Repeating": "No", "Purpose": "Data Collection", "Description": {"TranslatedText": [{"lang": "en"}]}, "ItemRef": [{"ItemOID": "IT.MI.LocalProcessing.STUDYID", "OrderNumber": 1, "Mandatory": "No"}, {"ItemOID": "IT.MI.LocalProcessing.SITEID", "OrderNumber": 2, "Mandatory": "No"}, {"ItemOID": "IT.MI.LocalProcessing.SUBJID", "OrderNumber": 3, "Mandatory": "No"}, {"ItemOID": "IT.MI.LocalProcessing.VISIT", "OrderNumber": 4, "Mandatory": "No"}, {"ItemOID": "IT.MI.LocalProcessing.VISDAT", "OrderNumber": 5, "Mandatory": "No"}, {"ItemOID": "IT.MI.LocalProcessing.MIPERF", "OrderNumber": 6, "Mandatory": "No"}, {"ItemOID": "IT.MI.LocalProcessing.MIREFID", "OrderNumber": 7, "Mandatory": "No"}, {"ItemOID": "IT.MI.LocalProcessing.MISPID", "OrderNumber": 8, "Mandatory": "No"}, {"ItemOID": "IT.MI.LocalProcessing.MIDAT", "OrderNumber": 9, "Mandatory": "No"}, {"ItemOID": "IT.MI.LocalProcessing.MITIM", "OrderNumber": 10, "Mandatory": "No"}, {"ItemOID": "IT.MI.LocalProcessing.MICAT", "OrderNumber": 11, "Mandatory": "No"}, {"ItemOID": "IT.MI.LocalProcessing.MISCAT", "OrderNumber": 12, "Mandatory": "No"}, {"ItemOID": "IT.MI.LocalProcessing.MITEST", "OrderNumber": 13, "Mandatory": "No"}, {"ItemOID": "IT.MI.LocalProcessing.MITSTDTL", "OrderNumber": 14, "Mandatory": "No"}, {"ItemOID": "IT.MI.LocalProcessing.MIORRES", "OrderNumber": 15, "Mandatory": "No"}, {"ItemOID": "IT.MI.LocalProcessing.MIORRESU", "OrderNumber": 16, "Mandatory": "No"}, {"ItemOID": "IT.MI.LocalProcessing.MICLSIG", "OrderNumber": 17, "Mandatory": "No"}, {"ItemOID": "IT.MI.LocalProcessing.MIRESCAT", "OrderNumber": 18, "Mandatory": "No"}, {"ItemOID": "IT.MI.LocalProcessing.MINAM", "OrderNumber": 19, "Mandatory": "No"}, {"ItemOID": "IT.MI.LocalProcessing.MISPEC", "OrderNumber": 20, "Mandatory": "No"}, {"ItemOID": "IT.MI.LocalProcessing.MISPCCND", "OrderNumber": 21, "Mandatory": "No"}, {"ItemOID": "IT.MI.LocalProcessing.MILOC", "OrderNumber": 22, "Mandatory": "No"}, {"ItemOID": "IT.MI.LocalProcessing.MILAT", "OrderNumber": 23, "Mandatory": "No"}, {"ItemOID": "IT.MI.LocalProcessing.MIDIR", "OrderNumber": 24, "Mandatory": "No"}, {"ItemOID": "IT.MI.LocalProcessing.MIMETHOD", "OrderNumber": 25, "Mandatory": "No"}, {"ItemOID": "IT.MI.LocalProcessing.MIEVAL", "OrderNumber": 26, "Mandatory": "No"}], "Class": {"Name": "FINDINGS"}}, {"OID": "IGD.PC.FixedTimePoints", "Name": "PC.FixedTimePoints", "Domain": "Pharmacokinetic Concentrations", "Repeating": "No", "Purpose": "Data Collection", "Description": {"TranslatedText": [{"lang": "en"}]}, "ItemRef": [{"ItemOID": "IT.PC.FixedTimePoints.STUDYID", "OrderNumber": 1, "Mandatory": "No"}, {"ItemOID": "IT.PC.FixedTimePoints.SITEID", "OrderNumber": 2, "Mandatory": "No"}, {"ItemOID": "IT.PC.FixedTimePoints.SUBJID", "OrderNumber": 3, "Mandatory": "No"}, {"ItemOID": "IT.PC.FixedTimePoints.VISIT", "OrderNumber": 4, "Mandatory": "No"}, {"ItemOID": "IT.PC.FixedTimePoints.VISDAT", "OrderNumber": 5, "Mandatory": "No"}, {"ItemOID": "IT.PC.FixedTimePoints.PCPERF", "OrderNumber": 6, "Mandatory": "No"}, {"ItemOID": "IT.PC.FixedTimePoints.PCSTAT", "OrderNumber": 7, "Mandatory": "No"}, {"ItemOID": "IT.PC.FixedTimePoints.PCREASND", "OrderNumber": 8, "Mandatory": "No"}, {"ItemOID": "IT.PC.FixedTimePoints.PCDAT", "OrderNumber": 9, "Mandatory": "No"}, {"ItemOID": "IT.PC.FixedTimePoints.PCDATFL", "OrderNumber": 10, "Mandatory": "No"}, {"ItemOID": "IT.PC.FixedTimePoints.PCTIM", "OrderNumber": 11, "Mandatory": "No"}, {"ItemOID": "IT.PC.FixedTimePoints.PCTPT", "OrderNumber": 12, "Mandatory": "No"}, {"ItemOID": "IT.PC.FixedTimePoints.PCFAST", "OrderNumber": 13, "Mandatory": "No"}, {"ItemOID": "IT.PC.FixedTimePoints.PCCOND", "OrderNumber": 14, "Mandatory": "No"}, {"ItemOID": "IT.PC.FixedTimePoints.PCREFID", "OrderNumber": 15, "Mandatory": "No"}, {"ItemOID": "IT.PC.FixedTimePoints.PCSPEC", "OrderNumber": 16, "Mandatory": "No"}, {"ItemOID": "IT.PC.FixedTimePoints.PCTEST", "OrderNumber": 17, "Mandatory": "No"}, {"ItemOID": "IT.PC.FixedTimePoints.PCORRES", "OrderNumber": 18, "Mandatory": "No"}, {"ItemOID": "IT.PC.FixedTimePoints.PCORRESU", "OrderNumber": 19, "Mandatory": "No"}], "Class": {"Name": "FINDINGS"}}, {"OID": "IGD.PC.PKSampleCollectionTimeInterval", "Name": "PC.PKSampleCollectionTimeInterval", "Domain": "Pharmacokinetics Concentrations", "Repeating": "No", "Purpose": "Data Collection", "Description": {"TranslatedText": [{"lang": "en"}]}, "ItemRef": [{"ItemOID": "IT.PC.PKSampleCollectionTimeInterval.STUDYID", "OrderNumber": 1, "Mandatory": "No"}, {"ItemOID": "IT.PC.PKSampleCollectionTimeInterval.SITEID", "OrderNumber": 2, "Mandatory": "No"}, {"ItemOID": "IT.PC.PKSampleCollectionTimeInterval.SUBJID", "OrderNumber": 3, "Mandatory": "No"}, {"ItemOID": "IT.PC.PKSampleCollectionTimeInterval.VISIT", "OrderNumber": 4, "Mandatory": "No"}, {"ItemOID": "IT.PC.PKSampleCollectionTimeInterval.VISDAT", "OrderNumber": 5, "Mandatory": "No"}, {"ItemOID": "IT.PC.PKSampleCollectionTimeInterval.PCPERF", "OrderNumber": 6, "Mandatory": "No"}, {"ItemOID": "IT.PC.PKSampleCollectionTimeInterval.PCREASND", "OrderNumber": 7, "Mandatory": "No"}, {"ItemOID": "IT.PC.PKSampleCollectionTimeInterval.PCDAT", "OrderNumber": 8, "Mandatory": "No"}, {"ItemOID": "IT.PC.PKSampleCollectionTimeInterval.PCTIM", "OrderNumber": 9, "Mandatory": "No"}, {"ItemOID": "IT.PC.PKSampleCollectionTimeInterval.PCENDAT", "OrderNumber": 10, "Mandatory": "No"}, {"ItemOID": "IT.PC.PKSampleCollectionTimeInterval.PCENTIM", "OrderNumber": 11, "Mandatory": "No"}, {"ItemOID": "IT.PC.PKSampleCollectionTimeInterval.PCTPT", "OrderNumber": 12, "Mandatory": "No"}, {"ItemOID": "IT.PC.PKSampleCollectionTimeInterval.PCFAST", "OrderNumber": 13, "Mandatory": "No"}, {"ItemOID": "IT.PC.PKSampleCollectionTimeInterval.PCCOND", "OrderNumber": 14, "Mandatory": "No"}, {"ItemOID": "IT.PC.PKSampleCollectionTimeInterval.PCREFID", "OrderNumber": 15, "Mandatory": "No"}, {"ItemOID": "IT.PC.PKSampleCollectionTimeInterval.PCSPEC", "OrderNumber": 16, "Mandatory": "No"}, {"ItemOID": "IT.PC.PKSampleCollectionTimeInterval.PCTEST", "OrderNumber": 17, "Mandatory": "No"}, {"ItemOID": "IT.PC.PKSampleCollectionTimeInterval.PCORRES", "OrderNumber": 18, "Mandatory": "No"}, {"ItemOID": "IT.PC.PKSampleCollectionTimeInterval.PCORRESU", "OrderNumber": 19, "Mandatory": "No"}], "Class": {"Name": "FINDINGS"}}, {"OID": "IGD.PE.Traditional", "Name": "PE.Traditional", "Domain": "Physical Examination", "Repeating": "No", "Purpose": "Data Collection", "Description": {"TranslatedText": [{"lang": "en"}]}, "ItemRef": [{"ItemOID": "IT.PE.Traditional.STUDYID", "OrderNumber": 1, "Mandatory": "No"}, {"ItemOID": "IT.PE.Traditional.SITEID", "OrderNumber": 2, "Mandatory": "No"}, {"ItemOID": "IT.PE.Traditional.SUBJID", "OrderNumber": 3, "Mandatory": "No"}, {"ItemOID": "IT.PE.Traditional.VISIT", "OrderNumber": 4, "Mandatory": "No"}, {"ItemOID": "IT.PE.Traditional.VISDAT", "OrderNumber": 5, "Mandatory": "No"}, {"ItemOID": "IT.PE.Traditional.PEPERF", "OrderNumber": 6, "Mandatory": "No"}, {"ItemOID": "IT.PE.Traditional.PECAT", "OrderNumber": 7, "Mandatory": "No"}, {"ItemOID": "IT.PE.Traditional.PESCAT", "OrderNumber": 8, "Mandatory": "No"}, {"ItemOID": "IT.PE.Traditional.PEDAT", "OrderNumber": 9, "Mandatory": "No"}, {"ItemOID": "IT.PE.Traditional.PETIM", "OrderNumber": 10, "Mandatory": "No"}, {"ItemOID": "IT.PE.Traditional.PESPID", "OrderNumber": 11, "Mandatory": "No"}, {"ItemOID": "IT.PE.Traditional.PETEST", "OrderNumber": 12, "Mandatory": "No"}, {"ItemOID": "IT.PE.Traditional.PERES", "OrderNumber": 13, "Mandatory": "No"}, {"ItemOID": "IT.PE.Traditional.PEDESC", "OrderNumber": 14, "Mandatory": "No"}, {"ItemOID": "IT.PE.Traditional.PECLSIG", "OrderNumber": 15, "Mandatory": "No"}, {"ItemOID": "IT.PE.Traditional.PEEVAL", "OrderNumber": 16, "Mandatory": "No"}, {"ItemOID": "IT.PE.Traditional.PEREASND", "OrderNumber": 17, "Mandatory": "No"}, {"ItemOID": "IT.PE.Traditional.PEBODSYS", "OrderNumber": 18, "Mandatory": "No"}, {"ItemOID": "IT.PE.Traditional.PEMODIFY", "OrderNumber": 19, "Mandatory": "No"}, {"ItemOID": "IT.PE.Traditional.PELOC", "OrderNumber": 20, "Mandatory": "No"}, {"ItemOID": "IT.PE.Traditional.PELAT", "OrderNumber": 21, "Mandatory": "No"}, {"ItemOID": "IT.PE.Traditional.PEDIR", "OrderNumber": 22, "Mandatory": "No"}, {"ItemOID": "IT.PE.Traditional.PEPORTOT", "OrderNumber": 23, "Mandatory": "No"}, {"ItemOID": "IT.PE.Traditional.PEMETHOD", "OrderNumber": 24, "Mandatory": "No"}], "Class": {"Name": "FINDINGS"}}, {"OID": "IGD.SC.HorizontalGeneric", "Name": "SC.HorizontalGeneric", "Domain": "Subject Characteristics", "Repeating": "No", "Purpose": "Data Collection", "Description": {"TranslatedText": [{"lang": "en"}]}, "ItemRef": [{"ItemOID": "IT.SC.STUDYID", "OrderNumber": 1, "Mandatory": "No"}, {"ItemOID": "IT.SC.SITEID", "OrderNumber": 2, "Mandatory": "No"}, {"ItemOID": "IT.SC.SUBJID", "OrderNumber": 3, "Mandatory": "No"}, {"ItemOID": "IT.SC.VISIT", "OrderNumber": 4, "Mandatory": "No"}, {"ItemOID": "IT.SC.VISDAT", "OrderNumber": 5, "Mandatory": "No"}, {"ItemOID": "IT.SC.SCCAT", "OrderNumber": 6, "Mandatory": "No"}, {"ItemOID": "IT.SC.SCSCAT", "OrderNumber": 7, "Mandatory": "No"}, {"ItemOID": "IT.SC.SCPERF", "OrderNumber": 8, "Mandatory": "No"}, {"ItemOID": "IT.SC.SCSPID", "OrderNumber": 9, "Mandatory": "No"}, {"ItemOID": "IT.SC.SCDAT", "OrderNumber": 10, "Mandatory": "No"}, {"ItemOID": "IT.SC.SCTEST", "OrderNumber": 11, "Mandatory": "No"}, {"ItemOID": "IT.SC.SCORRES", "OrderNumber": 12, "Mandatory": "No"}, {"ItemOID": "IT.SC.HorizontalGeneric.STUDYID", "OrderNumber": 13, "Mandatory": "No"}, {"ItemOID": "IT.SC.HorizontalGeneric.SITEID", "OrderNumber": 14, "Mandatory": "No"}, {"ItemOID": "IT.SC.HorizontalGeneric.SUBJID", "OrderNumber": 15, "Mandatory": "No"}, {"ItemOID": "IT.SC.HorizontalGeneric.VISIT", "OrderNumber": 16, "Mandatory": "No"}, {"ItemOID": "IT.SC.HorizontalGeneric.VISDAT", "OrderNumber": 17, "Mandatory": "No"}, {"ItemOID": "IT.SC.HorizontalGeneric.[SCTESTCD]_SCCAT", "OrderNumber": 18, "Mandatory": "No"}, {"ItemOID": "IT.SC.HorizontalGeneric.[SCTESTCD]_SCSCAT", "OrderNumber": 19, "Mandatory": "No"}, {"ItemOID": "IT.SC.HorizontalGeneric.[SCTESTCD]_SCPERF", "OrderNumber": 20, "Mandatory": "No"}, {"ItemOID": "IT.SC.HorizontalGeneric.SCGRPID", "OrderNumber": 21, "Mandatory": "No"}, {"ItemOID": "IT.SC.HorizontalGeneric.[SCTESTCD]_SCORRES", "OrderNumber": 22, "Mandatory": "No"}], "Class": {"Name": "FINDINGS"}}, {"OID": "IGD.VS.HorizontalGeneric", "Name": "VS.HorizontalGeneric", "Domain": "Vital Signs", "Repeating": "No", "Purpose": "Data Collection", "Description": {"TranslatedText": [{"lang": "en"}]}, "ItemRef": [{"ItemOID": "IT.VS.STUDYID", "OrderNumber": 1, "Mandatory": "No"}, {"ItemOID": "IT.VS.SITEID", "OrderNumber": 2, "Mandatory": "No"}, {"ItemOID": "IT.VS.SUBJID", "OrderNumber": 3, "Mandatory": "No"}, {"ItemOID": "IT.VS.VISIT", "OrderNumber": 4, "Mandatory": "No"}, {"ItemOID": "IT.VS.VISDAT", "OrderNumber": 5, "Mandatory": "No"}, {"ItemOID": "IT.VS.VSPERF", "OrderNumber": 6, "Mandatory": "No"}, {"ItemOID": "IT.VS.VSDAT", "OrderNumber": 7, "Mandatory": "No"}, {"ItemOID": "IT.VS.VSTIM", "OrderNumber": 8, "Mandatory": "No"}, {"ItemOID": "IT.VS.VSSPID", "OrderNumber": 9, "Mandatory": "No"}, {"ItemOID": "IT.VS.VSTPT", "OrderNumber": 10, "Mandatory": "No"}, {"ItemOID": "IT.VS.VSCAT", "OrderNumber": 11, "Mandatory": "No"}, {"ItemOID": "IT.VS.VSSCAT", "OrderNumber": 12, "Mandatory": "No"}, {"ItemOID": "IT.VS.VSREPNUM", "OrderNumber": 13, "Mandatory": "No"}, {"ItemOID": "IT.VS.VSTEST", "OrderNumber": 14, "Mandatory": "No"}, {"ItemOID": "IT.VS.VSSTAT", "OrderNumber": 15, "Mandatory": "No"}, {"ItemOID": "IT.VS.VSORRES", "OrderNumber": 16, "Mandatory": "No"}, {"ItemOID": "IT.VS.VSORRESU", "OrderNumber": 17, "Mandatory": "No"}, {"ItemOID": "IT.VS.VSCLSIG", "OrderNumber": 18, "Mandatory": "No"}, {"ItemOID": "IT.VS.VSLOC", "OrderNumber": 19, "Mandatory": "No"}, {"ItemOID": "IT.VS.VSPOS", "OrderNumber": 20, "Mandatory": "No"}, {"ItemOID": "IT.VS.VSDIR", "OrderNumber": 21, "Mandatory": "No"}, {"ItemOID": "IT.VS.VSLAT", "OrderNumber": 22, "Mandatory": "No"}, {"ItemOID": "IT.VS.HorizontalGeneric.STUDYID", "OrderNumber": 23, "Mandatory": "No"}, {"ItemOID": "IT.VS.HorizontalGeneric.SITEID", "OrderNumber": 24, "Mandatory": "No"}, {"ItemOID": "IT.VS.HorizontalGeneric.SUBJID", "OrderNumber": 25, "Mandatory": "No"}, {"ItemOID": "IT.VS.HorizontalGeneric.VISIT", "OrderNumber": 26, "Mandatory": "No"}, {"ItemOID": "IT.VS.HorizontalGeneric.VISDAT", "OrderNumber": 27, "Mandatory": "No"}, {"ItemOID": "IT.VS.HorizontalGeneric.[VSTESTCD]_VSPERF", "OrderNumber": 28, "Mandatory": "No"}, {"ItemOID": "IT.VS.HorizontalGeneric.[VSTESTCD]_VSDAT", "OrderNumber": 29, "Mandatory": "No"}, {"ItemOID": "IT.VS.HorizontalGeneric.[VSTESTCD]_VSTIM", "OrderNumber": 30, "Mandatory": "No"}, {"ItemOID": "IT.VS.HorizontalGeneric.VSCAT", "OrderNumber": 31, "Mandatory": "No"}, {"ItemOID": "IT.VS.HorizontalGeneric.VSSCAT", "OrderNumber": 32, "Mandatory": "No"}, {"ItemOID": "IT.VS.HorizontalGeneric.VSGRPID", "OrderNumber": 33, "Mandatory": "No"}, {"ItemOID": "IT.VS.HorizontalGeneric.[VSTESTCD]_VSTPT", "OrderNumber": 34, "Mandatory": "No"}, {"ItemOID": "IT.VS.HorizontalGeneric.[VSTESTCD]_VSSTAT", "OrderNumber": 35, "Mandatory": "No"}, {"ItemOID": "IT.VS.HorizontalGeneric.[VSTESTCD]_VSORRES", "OrderNumber": 36, "Mandatory": "No"}, {"ItemOID": "IT.VS.HorizontalGeneric.[VSTESTCD]_VSORRESU", "OrderNumber": 37, "Mandatory": "No"}, {"ItemOID": "IT.VS.HorizontalGeneric.[VSTESTCD]_VSCLSIG", "OrderNumber": 38, "Mandatory": "No"}, {"ItemOID": "IT.VS.HorizontalGeneric.[VSTESTCD]_VSPOS", "OrderNumber": 39, "Mandatory": "No"}, {"ItemOID": "IT.VS.HorizontalGeneric.[VSTESTCD]_VSLOC", "OrderNumber": 40, "Mandatory": "No"}, {"ItemOID": "IT.VS.HorizontalGeneric.[VSTESTCD]_VSLAT", "OrderNumber": 41, "Mandatory": "No"}], "Class": {"Name": "FINDINGS"}}, {"OID": "IGD.DM.BirthDateCollection", "Name": "DM.BirthDateCollection", "Domain": "Demographics", "Repeating": "No", "Purpose": "Data Collection", "Description": {"TranslatedText": [{"lang": "en"}]}, "ItemRef": [{"ItemOID": "IT.DM.BirthDateCollection.STUDYID", "OrderNumber": 1, "Mandatory": "No"}, {"ItemOID": "IT.DM.BirthDateCollection.SITEID", "OrderNumber": 2, "Mandatory": "No"}, {"ItemOID": "IT.DM.BirthDateCollection.SUBJID", "OrderNumber": 3, "Mandatory": "No"}, {"ItemOID": "IT.DM.BirthDateCollection.BRTHDD", "OrderNumber": 4, "Mandatory": "No"}, {"ItemOID": "IT.DM.BirthDateCollection.BRTHMO", "OrderNumber": 5, "Mandatory": "No"}, {"ItemOID": "IT.DM.BirthDateCollection.BRTHYY", "OrderNumber": 6, "Mandatory": "No"}, {"ItemOID": "IT.DM.BirthDateCollection.BRTHTIM", "OrderNumber": 7, "Mandatory": "No"}, {"ItemOID": "IT.DM.BirthDateCollection.AGE", "OrderNumber": 8, "Mandatory": "No"}, {"ItemOID": "IT.DM.BirthDateCollection.AGEU", "OrderNumber": 9, "Mandatory": "No"}, {"ItemOID": "IT.DM.BirthDateCollection.DMDAT", "OrderNumber": 10, "Mandatory": "No"}, {"ItemOID": "IT.DM.BirthDateCollection.SEX", "OrderNumber": 11, "Mandatory": "No"}, {"ItemOID": "IT.DM.BirthDateCollection.ETHNIC", "OrderNumber": 12, "Mandatory": "No"}, {"ItemOID": "IT.DM.BirthDateCollection.CETHNIC", "OrderNumber": 13, "Mandatory": "No"}, {"ItemOID": "IT.DM.BirthDateCollection.RACE", "OrderNumber": 14, "Mandatory": "No"}, {"ItemOID": "IT.DM.BirthDateCollection.CRACE", "OrderNumber": 15, "Mandatory": "No"}, {"ItemOID": "IT.DM.BirthDateCollection.RACEOTH", "OrderNumber": 16, "Mandatory": "No"}], "Class": {"Name": "SPECIAL PURPOSE"}}, {"OID": "IGD.DM.BirthDateCollectionSingleDate", "Name": "DM.BirthDateCollectionSingleDate", "Domain": "Demographics", "Repeating": "No", "Purpose": "Data Collection", "Description": {"TranslatedText": [{"lang": "en"}]}, "ItemRef": [{"ItemOID": "IT.DM.BirthDateCollectionSingleDate.STUDYID", "OrderNumber": 1, "Mandatory": "No"}, {"ItemOID": "IT.DM.BirthDateCollectionSingleDate.SITEID", "OrderNumber": 2, "Mandatory": "No"}, {"ItemOID": "IT.DM.BirthDateCollectionSingleDate.SUBJID", "OrderNumber": 3, "Mandatory": "No"}, {"ItemOID": "IT.DM.BirthDateCollectionSingleDate.BRTHDAT", "OrderNumber": 4, "Mandatory": "No"}, {"ItemOID": "IT.DM.BirthDateCollectionSingleDate.BRTHTIM", "OrderNumber": 5, "Mandatory": "No"}, {"ItemOID": "IT.DM.BirthDateCollectionSingleDate.AGE", "OrderNumber": 6, "Mandatory": "No"}, {"ItemOID": "IT.DM.BirthDateCollectionSingleDate.AGEU", "OrderNumber": 7, "Mandatory": "No"}, {"ItemOID": "IT.DM.BirthDateCollectionSingleDate.DMDAT", "OrderNumber": 8, "Mandatory": "No"}, {"ItemOID": "IT.DM.BirthDateCollectionSingleDate.SEX", "OrderNumber": 9, "Mandatory": "No"}, {"ItemOID": "IT.DM.BirthDateCollectionSingleDate.ETHNIC", "OrderNumber": 10, "Mandatory": "No"}, {"ItemOID": "IT.DM.BirthDateCollectionSingleDate.CETHNIC", "OrderNumber": 11, "Mandatory": "No"}, {"ItemOID": "IT.DM.BirthDateCollectionSingleDate.RACE", "OrderNumber": 12, "Mandatory": "No"}, {"ItemOID": "IT.DM.BirthDateCollectionSingleDate.CRACE", "OrderNumber": 13, "Mandatory": "No"}, {"ItemOID": "IT.DM.BirthDateCollectionSingleDate.RACEOTH", "OrderNumber": 14, "Mandatory": "No"}], "Class": {"Name": "SPECIAL PURPOSE"}}], "ItemDef": [{"OID": "IT.AG.STUDYID", "Name": "STUDYID", "Core": "HR", "DataType": "text", "SubmissionDataType": "Char", "Description": {"TranslatedText": [{"lang": "en", "_content": "Study Identifier"}]}, "Question": {}, "Alias": [{"Context": "sdtmigDatasetMappingTarget_0", "Name": "AG.STUDYID"}], "Prompt": {"TranslatedText": [{"lang": "en", "_content": "[Protocol/Study]"}]}, "ImplementationNotes": {"TranslatedText": [{"lang": "en", "_content": "Although this field is not typically captured on a CRF, it should be displayed clearly on the CRF and/or in the EDC system. This field can be included into the database or populated during SDTM-based dataset creation before submission."}]}, "MappingInstructions": {"TranslatedText": [{"lang": "en", "_content": "Maps directly to the SDTMIG variable listed in the SDTMIG Target column."}]}, "Definition": {"TranslatedText": [{"lang": "en", "_content": "A unique identifier for a study."}]}}, {"OID": "IT.AG.SITEID", "Name": "SITEID", "Core": "HR", "DataType": "text", "SubmissionDataType": "Char", "Description": {"TranslatedText": [{"lang": "en", "_content": "Study Site Identifier"}]}, "Question": {}, "Prompt": {"TranslatedText": [{"lang": "en", "_content": "Site (Identifier)"}]}, "ImplementationNotes": {"TranslatedText": [{"lang": "en", "_content": "Paper: This is typically pre-printed in the header of each CRF page for single site studies. For studies with multiple sites, this field may be left blank so that the number can be recorded by the site, or it may be pre-printed on CRFs that are shipped to each site. EDC: This should be pre-populated."}]}, "MappingInstructions": {"TranslatedText": [{"lang": "en", "_content": "Maps directly to the SDTMIG variable listed in the SDTMIG Target column."}]}, "Definition": {"TranslatedText": [{"lang": "en", "_content": "A unique identifier for a site within a study."}]}}, {"OID": "IT.AG.SUBJID", "Name": "SUBJID", "Core": "HR", "DataType": "text", "SubmissionDataType": "Char", "Description": {"TranslatedText": [{"lang": "en", "_content": "Subject Identifier for the Study"}]}, "Question": {}, "Alias": [{"Context": "sdtmigDatasetMappingTarget_0", "Name": "DM.SUBJID"}], "Prompt": {"TranslatedText": [{"lang": "en", "_content": "[Subject/Participant] (Identifier)"}]}, "CRFCompletionInstructions": {"TranslatedText": [{"lang": "en", "_content": "Record the identifier for the subject."}]}, "ImplementationNotes": {"TranslatedText": [{"lang": "en", "_content": "Paper: This is typically recorded in the header of each CRF page. EDC: The subject identifiers may be system generated. This CDASH variable is typically collected in all CDASH domains. However, this CDASH variable is populated only in the SDTM DM domain. For more information, refer to the SDTMIG."}]}, "MappingInstructions": {"TranslatedText": [{"lang": "en", "_content": "Maps directly to the SDTMIG variable listed in the SDTMIG Target column."}]}, "Definition": {"TranslatedText": [{"lang": "en", "_content": "A unique subject identifier within a site and a study."}]}}, {"OID": "IT.AG.AGCAT", "Name": "AGCAT", "Core": "O", "DataType": "text", "SubmissionDataType": "Char", "Description": {"TranslatedText": [{"lang": "en", "_content": "Category for Agent"}]}, "Question": {}, "Alias": [{"Context": "sdtmigDatasetMappingTarget_0", "Name": "AG.AGCAT"}], "Prompt": {"TranslatedText": [{"lang": "en", "_content": "Procedure Agent Category; NULL"}]}, "CRFCompletionInstructions": {"TranslatedText": [{"lang": "en", "_content": "Record the procedure agent category, if not pre-printed on the CRF."}]}, "ImplementationNotes": {"TranslatedText": [{"lang": "en", "_content": "Sponsor-defined controlled terminology. This would most commonly be either a heading or a pre-printed category value on the CRF, not a question to which the site would provide an answer. If a question is asked, the response would typically be a sponsor-defined codelist. If the form is laid out as a grid, then words such as \"Category\" can be included as the column header."}]}, "MappingInstructions": {"TranslatedText": [{"lang": "en", "_content": "Maps directly to the SDTMIG variable listed in the SDTMIG Target column."}]}, "Definition": {"TranslatedText": [{"lang": "en", "_content": "A grouping of topic-variable values based on user-defined characteristics."}]}}, {"OID": "IT.AG.AGSCAT", "Name": "AGSCAT", "Core": "O", "DataType": "text", "SubmissionDataType": "Char", "Description": {"TranslatedText": [{"lang": "en", "_content": "Subcategory for Agent"}]}, "Question": {}, "Alias": [{"Context": "sdtmigDatasetMappingTarget_0", "Name": "AG.AGSCAT"}], "Prompt": {"TranslatedText": [{"lang": "en", "_content": "Procedure Agent Subcategory; NULL"}]}, "CRFCompletionInstructions": {"TranslatedText": [{"lang": "en", "_content": "Record the procedure agent subcategory, if not pre-printed on the CRF."}]}, "ImplementationNotes": {"TranslatedText": [{"lang": "en", "_content": "Sponsor-defined controlled terminology. This would most commonly be pre-printed on the CRF or screen and pre-populated in the data management system. This is not typically a question to which the site would provide an answer."}]}, "MappingInstructions": {"TranslatedText": [{"lang": "en", "_content": "Maps directly to the SDTMIG variable listed in the SDTMIG Target column."}]}, "Definition": {"TranslatedText": [{"lang": "en", "_content": "A sub-division of the AGCAT values based on user-defined characteristics."}]}}, {"OID": "IT.AG.AGYN", "Name": "AGYN", "Core": "O", "DataType": "text", "SubmissionDataType": "Char", "Description": {"TranslatedText": [{"lang": "en", "_content": "Any Procedure Agent Taken"}]}, "Question": {}, "CodeListRef": {"CodeListOID": "CL.C66742"}, "Prompt": {"TranslatedText": [{"lang": "en", "_content": "Any procedure agents"}]}, "CRFCompletionInstructions": {"TranslatedText": [{"lang": "en", "_content": "Indicate if the subject was administered any procedure agents. If Yes, include the appropriate details where indicated on the CRF."}]}, "ImplementationNotes": {"TranslatedText": [{"lang": "en", "_content": "The intent/purpose of collecting this field is to help with data cleaning and monitoring. It provides verification that all other fields on the CRF were deliberately left blank."}]}, "MappingInstructions": {"TranslatedText": [{"lang": "en", "_content": "Does not map to an SDTMIG variable. The SDTM annotated CRF indicates that this field is NOT SUBMITTED."}]}, "Definition": {"TranslatedText": [{"lang": "en", "_content": "An indication of whether any procedure/assessment agent(s) were administered."}]}}, {"OID": "IT.AG.AGSPID", "Name": "AGSPID", "Core": "O", "DataType": "text", "SubmissionDataType": "Char", "Description": {"TranslatedText": [{"lang": "en", "_content": "AG Sponsor-Defined Identifier"}]}, "Question": {}, "Alias": [{"Context": "sdtmigDatasetMappingTarget_0", "Name": "AG.AGSPID"}], "Prompt": {"TranslatedText": [{"lang": "en", "_content": "[Sponsor defined]"}]}, "CRFCompletionInstructions": {"TranslatedText": [{"lang": "en", "_content": "If collected on the CRF, sponsor may insert instructions to ensure each record has a unique identifier."}]}, "ImplementationNotes": {"TranslatedText": [{"lang": "en", "_content": "Because SPID is a sponsor-defined identifier, conformance to Question Text or Item Prompt is not applicable. Typically used as an identifier in a data query to communicate clearly to the site the specific record in question or to reconcile procedure agent records with AEs and/or MH. May be used to record pre-printed number (e.g. line number, record number) on the CRF. This field may be populated by the sponsor's data collection system."}]}, "MappingInstructions": {"TranslatedText": [{"lang": "en", "_content": "Maps directly to the SDTMIG variable listed in the SDTMIG Target column. May be used to create RELREC to link this record with a record in another domain."}]}, "Definition": {"TranslatedText": [{"lang": "en", "_content": "A sponsor-defined identifier. In CDASH, this is typically used for pre-printed or auto-generated numbers on the CRF, or any other type of identifier that does not already have a defined CDASH identifier field."}]}}, {"OID": "IT.AG.AGTRT", "Name": "AGTRT", "Core": "HR", "DataType": "text", "SubmissionDataType": "Char", "Description": {"TranslatedText": [{"lang": "en", "_content": "Reported Agent Name"}]}, "Question": {}, "Alias": [{"Context": "sdtmigDatasetMappingTarget_0", "Name": "AG.AGTRT"}], "Prompt": {"TranslatedText": [{"lang": "en", "_content": "[Procedure/Assessment Agent]"}]}, "CRFCompletionInstructions": {"TranslatedText": [{"lang": "en", "_content": "Record only 1 procedure agent per line. Provide the full trade or proprietary name of the procedure agent; otherwise the generic name may be recorded."}]}, "ImplementationNotes": {"TranslatedText": [{"lang": "en", "_content": "In most cases, the verbatim drug names or treatment will be coded to a standard dictionary (e.g., WHODrug) after the data have been collected on the CRF. For the collection of verbatim procedure agents, the recommendation is to ask sites to provide the full trade or proprietary name since it is more exact than the generic. The full trade name provides the base generic and the appropriate salt for that particular drug. In addition, for coding purposes it helps with Anatomical Therapeutic Chemical (ATC) classification system code selection. For example, Tylenol with codeine #1 has a different ATC code than Tylenol with codeine #3."}]}, "MappingInstructions": {"TranslatedText": [{"lang": "en", "_content": "Maps directly to the SDTMIG variable listed in the SDTMIG Target column."}]}, "Definition": {"TranslatedText": [{"lang": "en", "_content": "Verbatim name of procedure/assessment agent administered."}]}}, {"OID": "IT.AG.AGPRESP", "Name": "AGPRESP", "Core": "O", "DataType": "text", "SubmissionDataType": "Char", "Description": {"TranslatedText": [{"lang": "en", "_content": "AG Pre-Specified"}]}, "CodeListRef": {"CodeListOID": "CL.C66742"}, "Alias": [{"Context": "sdtmigDatasetMappingTarget_0", "Name": "AG.AGPRESP"}], "ImplementationNotes": {"TranslatedText": [{"lang": "en", "_content": "For pre-specified interventions, a hidden field on a CRF defaulted to \"Y\", or added during the SDTM dataset creation. If a study collects both pre-specified and free-text interventions, the value of AGPRESP should be \"Y\" for all prespecified interventions and null for interventions reported as free text."}]}, "MappingInstructions": {"TranslatedText": [{"lang": "en", "_content": "Maps directly to the SDTMIG variable listed in the SDTMIG Target column."}]}, "Definition": {"TranslatedText": [{"lang": "en", "_content": "An indication that a specific procedure/assessment agent or group of agents is pre-specified on a CRF."}]}}, {"OID": "IT.AG.AGOCCUR", "Name": "AGOCCUR", "Core": "O", "DataType": "text", "SubmissionDataType": "Char", "Description": {"TranslatedText": [{"lang": "en", "_content": "AG Occurrence"}]}, "Question": {}, "CodeListRef": {"CodeListOID": "CL.C66742"}, "Alias": [{"Context": "sdtmigDatasetMappingTarget_0", "Name": "AG.AGOCCUR"}], "Prompt": {"TranslatedText": [{"lang": "en", "_content": "[AGTRT]"}]}, "CRFCompletionInstructions": {"TranslatedText": [{"lang": "en", "_content": "Indicate if the procedure agent was administered, by checking Yes or No."}]}, "ImplementationNotes": {"TranslatedText": [{"lang": "en", "_content": "AGOCCUR is used to report the occurrence of a pre-specified procedure agent. AGOCCUR is not used for spontaneously free-text reported procedure agent(s). The site should be able to indicate that the response was not asked or answered."}]}, "MappingInstructions": {"TranslatedText": [{"lang": "en", "_content": "Maps directly to the SDTMIG variable listed in the SDTMIG Target column. If the response was not asked or answered, populate the SDTMIG variable AGSTAT with \"NOT DONE\"."}]}, "Definition": {"TranslatedText": [{"lang": "en", "_content": "An indication whether the given procedure/assessment agent or group of agents was administered when information about the occurrence of a specific procedure/assessment agent is solicited."}]}}, {"OID": "IT.AG.AGDOSE", "Name": "AGDOSE", "Core": "O", "DataType": "double", "SubmissionDataType": "Num", "Description": {"TranslatedText": [{"lang": "en", "_content": "AG Dose per Administration"}]}, "Question": {}, "Alias": [{"Context": "sdtmigDatasetMappingTarget_0", "Name": "AG.AGDOSE"}], "Prompt": {"TranslatedText": [{"lang": "en", "_content": "[Dose/Amount] (per administration)"}]}, "CRFCompletionInstructions": {"TranslatedText": [{"lang": "en", "_content": "Record the dose of the [procedure agent] taken per administration (e.g., 200)."}]}, "ImplementationNotes": {"TranslatedText": [{"lang": "en", "_content": "Used when the dose/amount administered has only numeric entries. If non-numeric entries are possible, use the CDASH field AGDSTXT."}]}, "MappingInstructions": {"TranslatedText": [{"lang": "en", "_content": "Maps directly to the SDTMIG variable listed in the SDTMIG Target column."}]}, "Definition": {"TranslatedText": [{"lang": "en", "_content": "The dose of procedure/assessment agent (e.g., --TRT ) given at one time represented as a numeric value."}]}}, {"OID": "IT.AG.AGDSTXT", "Name": "AGDSTXT", "Core": "O", "DataType": "text", "SubmissionDataType": "Char", "Description": {"TranslatedText": [{"lang": "en", "_content": "Procedure Agents Dose Description"}]}, "Question": {}, "Alias": [{"Context": "sdtmigDatasetMappingTarget_0", "Name": "AG.AGDOSE"}, {"Context": "sdtmigDatasetMappingTarget_1", "Name": "AG.AGDOSTXT"}], "Prompt": {"TranslatedText": [{"lang": "en", "_content": "Dose"}]}, "CRFCompletionInstructions": {"TranslatedText": [{"lang": "en", "_content": "Record the dose of [procedure agent] taken per administration (e.g., 200)."}]}, "ImplementationNotes": {"TranslatedText": [{"lang": "en", "_content": "Defining this data collection field as a dose text field allows for flexibility in capturing dose entries as numbers, text or ranges. The data collected in this dose text-format field should be separated or mapped to either SDTMIG AGDOSE (if numeric) or AGDOSTXT (if text)."}]}, "MappingInstructions": {"TranslatedText": [{"lang": "en", "_content": "This does not map directly to an SDTMIG variable. Numeric values map to AGDOSE in SDTM. Non-numeric values (e.g., 200-400) map to AGDOSTXT in SDTM."}]}, "Definition": {"TranslatedText": [{"lang": "en", "_content": "The dose of procedure/assessment agent administered per instance."}]}}, {"OID": "IT.AG.AGDOSU", "Name": "AGDOSU", "Core": "R/C", "DataType": "text", "SubmissionDataType": "Char", "Description": {"TranslatedText": [{"lang": "en", "_content": "AG Dose Units"}]}, "Question": {}, "CodeListRef": {"CodeListOID": "CL.C71620"}, "Alias": [{"Context": "sdtmigDatasetMappingTarget_0", "Name": "AG.AGDOSU"}], "AltCodeListRef": [{"CodeListOID": "CL.C78417"}], "Prompt": {"TranslatedText": [{"lang": "en", "_content": "(Dose) Unit"}]}, "CRFCompletionInstructions": {"TranslatedText": [{"lang": "en", "_content": "Record the dose unit of the [procedure agent] administered (e.g., mg)."}]}, "ImplementationNotes": {"TranslatedText": [{"lang": "en", "_content": "When sponsors collect data for amount of dose administered (i.e., Dose, Total Daily Dose), the unit must be collected as well (if applicable)."}]}, "MappingInstructions": {"TranslatedText": [{"lang": "en", "_content": "Maps directly to the SDTMIG variable listed in the SDTMIG Target column."}]}, "Definition": {"TranslatedText": [{"lang": "en", "_content": "The unit associated with the procedure/assessment agent."}]}}, {"OID": "IT.AG.AGDOSFRM", "Name": "AGDOSFRM", "Core": "O", "DataType": "text", "SubmissionDataType": "Char", "Description": {"TranslatedText": [{"lang": "en", "_content": "AG Dose Form"}]}, "Question": {}, "CodeListRef": {"CodeListOID": "CL.C66726"}, "Alias": [{"Context": "sdtmigDatasetMappingTarget_0", "Name": "AG.AGDOSFRM"}], "AltCodeListRef": [{"CodeListOID": "CL.C78418"}], "Prompt": {"TranslatedText": [{"lang": "en", "_content": "Dose Form"}]}, "CRFCompletionInstructions": {"TranslatedText": [{"lang": "en", "_content": "Record the pharmaceutical dosage form (e.g., TABLET CAPSULE SYRUP) for the [procedure agent] [administered]."}]}, "ImplementationNotes": {"TranslatedText": [{"lang": "en", "_content": "Some drugs have multiple forms and this field may be needed to code the drug to an ATC level. However, in general, this level of detail should not be necessary except for procedure agents of interest."}]}, "MappingInstructions": {"TranslatedText": [{"lang": "en", "_content": "Maps directly to the SDTMIG variable listed in the SDTMIG Target column."}]}, "Definition": {"TranslatedText": [{"lang": "en", "_content": "The pharmaceutical dosage form in which the AGTRT is physically presented."}]}}, {"OID": "IT.AG.AGDOSFRQ", "Name": "AGDOSFRQ", "Core": "O", "DataType": "text", "SubmissionDataType": "Char", "Description": {"TranslatedText": [{"lang": "en", "_content": "AG Dosing Frequency per Interval"}]}, "Question": {}, "CodeListRef": {"CodeListOID": "CL.C71113"}, "Alias": [{"Context": "sdtmigDatasetMappingTarget_0", "Name": "AG.AGDOSFRQ"}], "AltCodeListRef": [{"CodeListOID": "CL.C78419"}], "Prompt": {"TranslatedText": [{"lang": "en", "_content": "Frequency"}]}, "CRFCompletionInstructions": {"TranslatedText": [{"lang": "en", "_content": "Record how often the [procedure agent] was administered (e.g., ONCE)."}]}, "ImplementationNotes": {"TranslatedText": [{"lang": "en", "_content": "The frequency of the procedure agent. When collected, the recommendation is to collect dosing information in separate fields (e.g., AGDOSE, AGDOSEU, AGDOSFRQ) for specific and consistent data collection and to enable programmatically utilizing these data."}]}, "MappingInstructions": {"TranslatedText": [{"lang": "en", "_content": "Maps directly to the SDTMIG variable listed in the SDTMIG Target column."}]}, "Definition": {"TranslatedText": [{"lang": "en", "_content": "The number of doses administered during a specific interval."}]}}, {"OID": "IT.AG.AGROUTE", "Name": "AGROUTE", "Core": "R/C", "DataType": "text", "SubmissionDataType": "Char", "Description": {"TranslatedText": [{"lang": "en", "_content": "AG Route of Administration"}]}, "Question": {}, "CodeListRef": {"CodeListOID": "CL.C66729"}, "Alias": [{"Context": "sdtmigDatasetMappingTarget_0", "Name": "AG.AGROUTE"}], "AltCodeListRef": [{"CodeListOID": "CL.C78420"}], "Prompt": {"TranslatedText": [{"lang": "en", "_content": "Route"}]}, "CRFCompletionInstructions": {"TranslatedText": [{"lang": "en", "_content": "Provide the route of administration for the [procedure agent]."}]}, "ImplementationNotes": {"TranslatedText": [{"lang": "en", "_content": "This additional information may be important to collect on the CRF when the sponsor wants to capture a procedure agent's route of administration, for purposes such as coding, and the procedure agent may have more than 1 route. Some companies may use route in coding procedure agents to be able to choose a precise preferred name and ATC code."}]}, "MappingInstructions": {"TranslatedText": [{"lang": "en", "_content": "Maps directly to the SDTMIG variable listed in the SDTMIG Target column."}]}, "Definition": {"TranslatedText": [{"lang": "en", "_content": "The route of administration of the procedure/assessment agent."}]}}, {"OID": "IT.AG.AGSTDAT", "Name": "AGSTDAT", "Core": "R/C", "DataType": "text", "SubmissionDataType": "Char", "Description": {"TranslatedText": [{"lang": "en", "_content": "Procedure Agent Start Date"}]}, "Question": {}, "Alias": [{"Context": "sdtmigDatasetMappingTarget_0", "Name": "AG.AGSTDTC"}], "Prompt": {"TranslatedText": [{"lang": "en", "_content": "Start Date"}]}, "CRFCompletionInstructions": {"TranslatedText": [{"lang": "en", "_content": "Record the date the procedure agent was first administered using this format (DD-MON-YYYY). Procedure agent(s) administered during the study are expected to have a complete start date."}]}, "ImplementationNotes": {"TranslatedText": [{"lang": "en", "_content": "The assumption is that sponsors should either have a start date or will indicate that the procedure agent was started before, during or after the study period. The preferred method is to collect a complete start date. Partial dates (e.g., providing year only) for procedure agent started a considerable amount of time prior to the start of study are acceptable."}]}, "MappingInstructions": {"TranslatedText": [{"lang": "en", "_content": "This does not map directly to an SDTMIG variable. For the SDTM submission dataset, concatenate all collected CDASH START DATE and TIME components and populate the SDTMIG variable AGSTDTC in ISO 8601 format."}]}, "Definition": {"TranslatedText": [{"lang": "en", "_content": "The start date when the procedure/assessment agent was first administered, represented in an unambiguous date format (e.g., DD-MON-YYYY)."}]}}, {"OID": "IT.AG.AGSTTIM", "Name": "AGSTTIM", "Core": "R/C", "DataType": "text", "SubmissionDataType": "Char", "Description": {"TranslatedText": [{"lang": "en", "_content": "Procedure Agent Start Time"}]}, "Question": {}, "Alias": [{"Context": "sdtmigDatasetMappingTarget_0", "Name": "AG.AGSTDTC"}], "Prompt": {"TranslatedText": [{"lang": "en", "_content": "Start Time"}]}, "CRFCompletionInstructions": {"TranslatedText": [{"lang": "en", "_content": "Record the time (as complete as possible) that the [procedure agent] was started."}]}, "ImplementationNotes": {"TranslatedText": [{"lang": "en", "_content": "Recommend collecting the time a procedure agent was started only when a protocol or data collection scenarios supports it. Typically, a start time is not collected unless the subject is under the direct care of the site at the time a procedure agent administered or the subject records the start time in a diary. See Mapping Relative Times from Collection to Submissions, and the SDTMIG for more information."}]}, "MappingInstructions": {"TranslatedText": [{"lang": "en", "_content": "This does not map directly to an SDTMIG variable. For the SDTM submission dataset, concatenate all collected CDASH START DATE and TIME components and populate the SDTMIG variable AGSTDTC in ISO 8601 format."}]}, "Definition": {"TranslatedText": [{"lang": "en", "_content": "The time the procedure/assessment agent was started, represented in an ambiguous time format (e.g., h:mm:ss)."}]}}, {"OID": "IT.AG.AGPRIOR", "Name": "AGPRIOR", "Core": "O", "DataType": "text", "SubmissionDataType": "Char", "Description": {"TranslatedText": [{"lang": "en", "_content": "Prior Procedure Agents"}]}, "Question": {}, "CodeListRef": {"CodeListOID": "CL.C66742"}, "Alias": [{"Context": "sdtmigDatasetMappingTarget_0", "Name": "AG.AGSTRF"}, {"Context": "sdtmigDatasetMappingTarget_1", "Name": "AG.AGSTRTPT"}], "Prompt": {"TranslatedText": [{"lang": "en", "_content": "Prior to [AGSTTPT]; prior to study"}]}, "CRFCompletionInstructions": {"TranslatedText": [{"lang": "en", "_content": "Check if the [procedure agent] was started before the study."}]}, "ImplementationNotes": {"TranslatedText": [{"lang": "en", "_content": "Sponsors may collect this information rather than start dates. See Mapping Relative Times from Collection to Submissions, and the SDTMIG for more information."}]}, "MappingInstructions": {"TranslatedText": [{"lang": "en", "_content": "This does not map directly to an SDTMIG variable. May be used to populate a value into an SDTMIG relative timing variable such as AGSTRF or AGSTRTPT. When populating AGSTRF or AGSTRTPT, if the value of the CDASH field AGPRIOR is \"Y\", a value from the CDISC CT (STENRF) may be used. When AGPRIOR refers to the Study Reference Period (defined in DM.RFSTDTC to DM.RFENDTC), the SDTMIG variable AGSTRF should be populated. When AGPRIOR is compared to another time point, the SDTMIG variables AGSTRTPT and AGSTTPT should be used. Note: AGSTRTPT must be in reference to the time-point anchor described in AGSTTPT."}]}, "Definition": {"TranslatedText": [{"lang": "en", "_content": "Indication the procedure/assessment agent was administered prior to [AGSTTPT] or prior to the date in DM.RFSTDTC."}]}}, {"OID": "IT.AG.AGONGO", "Name": "AGONGO", "Core": "R/C", "DataType": "text", "SubmissionDataType": "Char", "Description": {"TranslatedText": [{"lang": "en", "_content": "Ongoing Procedure Agents"}]}, "Question": {}, "CodeListRef": {"CodeListOID": "CL.C66742"}, "Alias": [{"Context": "sdtmigDatasetMappingTarget_0", "Name": "AG.AGENRF"}, {"Context": "sdtmigDatasetMappingTarget_1", "Name": "AG.AGENRTPT"}], "Prompt": {"TranslatedText": [{"lang": "en", "_content": "Ongoing (as of [the study-specific time point or period])"}]}, "CRFCompletionInstructions": {"TranslatedText": [{"lang": "en", "_content": "Record the [procedure agent] as ongoing if the subject has not stopped taking the procedure agent at [the time point defined by the study]. If the procedure agent is ongoing, the end date should be left blank."}]}, "ImplementationNotes": {"TranslatedText": [{"lang": "en", "_content": "This box should be checked to indicate that theprocedure agent has not stopped at the time of data collection. It is expected that every recorded procedure agent should have either an end date or be checked as ongoing, but not both. However, in cases where ongoing procedure agents are not permitted, it may not be necessary to include an Ongoing field in the CRF. See Mapping Relative Times from Collection to Submission, for more information about collecting relative date/time; see the SDTMIG for information about mapping relative times."}]}, "MappingInstructions": {"TranslatedText": [{"lang": "en", "_content": "This does not map directly to an SDTMIG variable. May be used to populate a value into an SDTMIG relative timing variable such as AGENRF or AGENRTPT. When populating AGENRF, if the value of AGONGO is \"Y\", the values of \"DURING\", \"AFTER\" or \"DURING/AFTER\" may be used. When populating AGENRTPT, if the value of AGONGO is \"Y\", the value of \"ONGOING\" may be used. When AGONGO refers to the Study Reference Period (defined in DM.RFSTDTC to DM.RFENDTC), the SDTMIG variable AGENRF should be populated. When AGONGO is used in conjunction with another time point, the SDTMIG variables AGENRTPT and AGENTPT should be used. Note: AGENRTPT must be in reference to the time-point anchor described in AGENTPT."}]}, "Definition": {"TranslatedText": [{"lang": "en", "_content": "Indication the procedure/assessment agent is ongoing when no end date is provided."}]}}, {"OID": "IT.AG.AGENDAT", "Name": "AGENDAT", "Core": "R/C", "DataType": "text", "SubmissionDataType": "Char", "Description": {"TranslatedText": [{"lang": "en", "_content": "Procedure Agents End Date"}]}, "Question": {}, "Alias": [{"Context": "sdtmigDatasetMappingTarget_0", "Name": "AG.AGENDTC"}], "Prompt": {"TranslatedText": [{"lang": "en", "_content": "End Date"}]}, "CRFCompletionInstructions": {"TranslatedText": [{"lang": "en", "_content": "Record the date the procedure agent was topped using this format (DD-MM-YYYY). If the subject has not stopped [administering/being administered] the procedure agent leave this field blank."}]}, "ImplementationNotes": {"TranslatedText": [{"lang": "en", "_content": "The assumption is that sponsors should either have an end date or will indicate that the procedure agent was ongoing at the time of collection or at the end of the study. However, in cases where the end date can be determined from dates collected elsewhere in the CRF it is not necessary to include an end date in the CRF. For example, if all procedure agents are administered only once during a trial, the end date will be the same as the start date."}]}, "MappingInstructions": {"TranslatedText": [{"lang": "en", "_content": "This does not map directly to an SDTMIG variable. For the SDTM submission dataset, concatenate all collected CDASH END DATE and TIME components and populate the SDTMIG variable CMENDTC in ISO 8601 format."}]}, "Definition": {"TranslatedText": [{"lang": "en", "_content": "The date the procedure/assessment agent was stopped/ended, represented in an unambiguous date format (e.g. DD-MON-YYYY)."}]}}, {"OID": "IT.AG.AGENTIM", "Name": "AGENTIM", "Core": "R/C", "DataType": "text", "SubmissionDataType": "Char", "Description": {"TranslatedText": [{"lang": "en", "_content": "Procedure Agents End Time"}]}, "Question": {}, "Alias": [{"Context": "sdtmigDatasetMappingTarget_0", "Name": "AG.AGENDTC"}], "Prompt": {"TranslatedText": [{"lang": "en", "_content": "End Time"}]}, "CRFCompletionInstructions": {"TranslatedText": [{"lang": "en", "_content": "Record the time (as complete as possible) that the procedure agent was stopped."}]}, "ImplementationNotes": {"TranslatedText": [{"lang": "en", "_content": "Recommend collecting the time a procedure agent was ended only when a protocol or data collection scenarios require it or the subject records the end time in a diary. Typically, an end time is not collected unless the subject is under the direct care of the site at the time a procedure agent is stopped."}]}, "MappingInstructions": {"TranslatedText": [{"lang": "en", "_content": "This does not map directly to an SDTMIG variable. For the SDTM submission dataset, concatenate all collected CDASH END DATE and TIME components and populate the SDTMIG variable AGENDTC in ISO 8601 format."}]}, "Definition": {"TranslatedText": [{"lang": "en", "_content": "The time the concomitant medication/treatment/therapy was started, represented in an unambiguous time format (e.g., hh:mm:ss)."}]}}, {"OID": "IT.AG.AGDECOD", "Name": "AGDECOD", "Core": "O", "DataType": "text", "SubmissionDataType": "Char", "Description": {"TranslatedText": [{"lang": "en", "_content": "Standardized Agent Name"}]}, "Alias": [{"Context": "sdtmigDatasetMappingTarget_0", "Name": "AG.AGDECOD"}], "ImplementationNotes": {"TranslatedText": [{"lang": "en", "_content": "This is typically not a data collection field that will appear on the CRF. If the sponsor chooses to code the procedure, the sponsor will populate this through the coding process. If PRPRESP is used, and the information about a specific standardized procedure name is being solicited, the data from AGTRT may map directly to the SDTMIG AGDECOD variable."}]}, "MappingInstructions": {"TranslatedText": [{"lang": "en", "_content": "Maps directly to the SDTMIG variable listed in the SDTMIG Target column."}]}, "Definition": {"TranslatedText": [{"lang": "en", "_content": "The dictionary or sponsor-defined standardized text description of the topic variable (AGTRT) or the modified topic variable (AGMODIFY), if applicable."}]}}, {"OID": "IT.AG.AGCLAS", "Name": "AGCLAS", "Core": "O", "DataType": "text", "SubmissionDataType": "Char", "Description": {"TranslatedText": [{"lang": "en", "_content": "AG Agent Class"}]}, "Alias": [{"Context": "sdtmigDatasetMappingTarget_0", "Name": "AG.AGCLAS"}], "ImplementationNotes": {"TranslatedText": [{"lang": "en", "_content": "This field does not typically appear on the CRF. Sponsors will populate this through the coding process. This would generally be the class used for analysis."}]}, "MappingInstructions": {"TranslatedText": [{"lang": "en", "_content": "Maps directly to the SDTMIG variable listed in the SDTMIG Target column."}]}, "Definition": {"TranslatedText": [{"lang": "en", "_content": "The class for the agent, often obtained from a coding dictionary."}]}}, {"OID": "IT.AG.AGCLASCD", "Name": "AGCLASCD", "Core": "O", "DataType": "double", "SubmissionDataType": "Num", "Description": {"TranslatedText": [{"lang": "en", "_content": "AG Agent Class Code"}]}, "Alias": [{"Context": "sdtmigDatasetMappingTarget_0", "Name": "AG.AGCLASCD"}], "ImplementationNotes": {"TranslatedText": [{"lang": "en", "_content": "This field does not typically appear on the CRF. Sponsors will populate this through the coding process. This would generally be the class code used for analysis."}]}, "MappingInstructions": {"TranslatedText": [{"lang": "en", "_content": "Maps directly to the SDTMIG variable listed in the SDTMIG Target column."}]}, "Definition": {"TranslatedText": [{"lang": "en", "_content": "The assigned dictionary code for the class of agent."}]}}, {"OID": "IT.CM.STUDYID", "Name": "STUDYID", "Core": "HR", "DataType": "text", "SubmissionDataType": "Char", "Description": {"TranslatedText": [{"lang": "en", "_content": "Study Identifier"}]}, "Question": {}, "Alias": [{"Context": "sdtmigDatasetMappingTarget_0", "Name": "CM.STUDYID"}], "Prompt": {"TranslatedText": [{"lang": "en", "_content": "[Protocol/Study]"}]}, "ImplementationNotes": {"TranslatedText": [{"lang": "en", "_content": "Although this field is not typically captured on a CRF, it should be displayed clearly on the CRF and/or the EDC system. This field can be included into the database or populated during SDTM-based dataset creation before submission."}]}, "MappingInstructions": {"TranslatedText": [{"lang": "en", "_content": "Maps directly to the SDTMIG variable listed in the SDTMIG Target column."}]}, "Definition": {"TranslatedText": [{"lang": "en", "_content": "A unique identifier for a study."}]}}, {"OID": "IT.CM.SITEID", "Name": "SITEID", "Core": "HR", "DataType": "text", "SubmissionDataType": "Char", "Description": {"TranslatedText": [{"lang": "en", "_content": "Study Site Identifier"}]}, "Question": {}, "Alias": [{"Context": "sdtmigDatasetMappingTarget_0", "Name": "DM.SITEID"}], "Prompt": {"TranslatedText": [{"lang": "en", "_content": "Site (Identifier)"}]}, "ImplementationNotes": {"TranslatedText": [{"lang": "en", "_content": "Paper: For single-site studies, this is typically pre-printed in the header of each CRF page. For studies with multiple sites, this field may be left blank so that the number can be recorded by the site, or it may be pre-printed on CRFs that are shipped to each site. \\n EDC: This should be pre-populated."}]}, "MappingInstructions": {"TranslatedText": [{"lang": "en", "_content": "Maps directly to the SDTMIG variable listed in the SDTMIG Target column."}]}, "Definition": {"TranslatedText": [{"lang": "en", "_content": "A unique identifier for a site within a study."}]}}, {"OID": "IT.CM.SUBJID", "Name": "SUBJID", "Core": "HR", "DataType": "text", "SubmissionDataType": "Char", "Description": {"TranslatedText": [{"lang": "en", "_content": "Subject Identifier for the Study"}]}, "Question": {}, "Alias": [{"Context": "sdtmigDatasetMappingTarget_0", "Name": "DM.SUBJID"}], "Prompt": {"TranslatedText": [{"lang": "en", "_content": "[Subject/Participant] (Identifier)"}]}, "CRFCompletionInstructions": {"TranslatedText": [{"lang": "en", "_content": "Record the identifier for the subject."}]}, "ImplementationNotes": {"TranslatedText": [{"lang": "en", "_content": "Paper: This is typically recorded in the header of each CRF page. \\n EDC: The subject identifiers may be system-generated. \\n This CDASH variable is typically collected in all CDASH domains. However, this CDASH variable is populated only in the SDTMIG DM domain. For more information, refer to the SDTMIG."}]}, "MappingInstructions": {"TranslatedText": [{"lang": "en", "_content": "Maps directly to the SDTMIG variable listed in the SDTMIG Target column."}]}, "Definition": {"TranslatedText": [{"lang": "en", "_content": "A unique subject identifier within a site and a study."}]}}, {"OID": "IT.CM.CMCAT", "Name": "CMCAT", "Core": "O", "DataType": "text", "SubmissionDataType": "Char", "Description": {"TranslatedText": [{"lang": "en", "_content": "Category for Medication"}]}, "Question": {}, "Alias": [{"Context": "sdtmigDatasetMappingTarget_0", "Name": "CM.CMCAT"}], "Prompt": {"TranslatedText": [{"lang": "en", "_content": "(Concomitant) [Medication/Treatment/Therapy Category]; NULL"}]}, "CRFCompletionInstructions": {"TranslatedText": [{"lang": "en", "_content": "Record the (concomitant) [medication/treatment/therapy] category, if not pre-printed on the CRF."}]}, "ImplementationNotes": {"TranslatedText": [{"lang": "en", "_content": "Sponsor-defined controlled terminology. This would most commonly be either a heading or a pre-printed category value on the CRF, not a question to which the site would provide an answer. If a question is asked, the response would typically be a sponsor-defined codelist. If the form is laid out as a grid, then words such as \"Category\" can be included in the column heading."}]}, "MappingInstructions": {"TranslatedText": [{"lang": "en", "_content": "Maps directly to the SDTMIG variable listed in the SDTMIG Target column."}]}, "Definition": {"TranslatedText": [{"lang": "en", "_content": "A grouping of topic-variable values based on user-defined characteristics."}]}}, {"OID": "IT.CM.CMSCAT", "Name": "CMSCAT", "Core": "O", "DataType": "text", "SubmissionDataType": "Char", "Description": {"TranslatedText": [{"lang": "en", "_content": "Subcategory for Medication"}]}, "Question": {}, "Alias": [{"Context": "sdtmigDatasetMappingTarget_0", "Name": "CM.CMSCAT"}], "Prompt": {"TranslatedText": [{"lang": "en", "_content": "(Concomitant) [Medication/Treatment/Therapy subcategory]; NULL"}]}, "CRFCompletionInstructions": {"TranslatedText": [{"lang": "en", "_content": "Record (concomitant) [medication/treatment/therapy] subcategory, if not pre-printed on the CRF."}]}, "ImplementationNotes": {"TranslatedText": [{"lang": "en", "_content": "Sponsor-defined controlled terminology. This would most commonly be pre-printed on the CRF or screen and pre-populated in the data management system. This is not typically a question to which the site would provide an answer."}]}, "MappingInstructions": {"TranslatedText": [{"lang": "en", "_content": "Maps directly to the SDTMIG variable listed in the SDTMIG Target column."}]}, "Definition": {"TranslatedText": [{"lang": "en", "_content": "A sub-division of the CMCAT values based on user-defined characteristics."}]}}, {"OID": "IT.CM.CMYN", "Name": "CMYN", "Core": "O", "DataType": "text", "SubmissionDataType": "Char", "Description": {"TranslatedText": [{"lang": "en", "_content": "Any Concomitant Medications Taken"}]}, "Question": {}, "CodeListRef": {"CodeListOID": "CL.C66742"}, "Prompt": {"TranslatedText": [{"lang": "en", "_content": "Any (Concomitant) [Medication(s)/Treatment(s)/Therapy(ies)]"}]}, "CRFCompletionInstructions": {"TranslatedText": [{"lang": "en", "_content": "Indicate if the subject took any (concomitant) [medications/treatments]. If Yes, include the appropriate details where indicated on the CRF."}]}, "ImplementationNotes": {"TranslatedText": [{"lang": "en", "_content": "The intent/purpose of collecting this field is to help with data cleaning and monitoring. It provides verification that all other fields on the CRF were deliberately left blank."}]}, "MappingInstructions": {"TranslatedText": [{"lang": "en", "_content": "Does not map to an SDTMIG variable. The SDTM annotated CRF indicates that this field is NOT SUBMITTED."}]}, "Definition": {"TranslatedText": [{"lang": "en", "_content": "An indication of whether any (concomitant) medications/treatments/therapies were taken/given."}]}}, {"OID": "IT.CM.CMSPID", "Name": "CMSPID", "Core": "O", "DataType": "text", "SubmissionDataType": "Char", "Description": {"TranslatedText": [{"lang": "en", "_content": "CM Sponsor-Defined Identifier"}]}, "Question": {}, "Alias": [{"Context": "sdtmigDatasetMappingTarget_0", "Name": "CM.CMSPID"}], "Prompt": {"TranslatedText": [{"lang": "en", "_content": "[Sponsor defined]"}]}, "CRFCompletionInstructions": {"TranslatedText": [{"lang": "en", "_content": "If collected on the CRF, sponsor may insert instructions to ensure each record has a unique identifier."}]}, "ImplementationNotes": {"TranslatedText": [{"lang": "en", "_content": "Because SPID is a sponsor-defined identifier, conformance to Question Text or Item Prompt is not applicable. Typically used as an identifier in a data query to communicate clearly to the site the specific record in question or to reconcile concomitant medication/treatment records with AEs and/or MH. May be used to record pre-printed number (e.g. line number, record number) on the CRF. This field may be populated by the sponsor's data collection system."}]}, "MappingInstructions": {"TranslatedText": [{"lang": "en", "_content": "Maps directly to the SDTMIG variable listed in the SDTMIG Target column. May be used to create RELREC to link this record with a record in another domain."}]}, "Definition": {"TranslatedText": [{"lang": "en", "_content": "A sponsor-defined identifier. In CDASH, this is typically used for pre-printed or auto-generated numbers on the CRF, or any other type of identifier that does not already have a defined CDASH identifier field."}]}}, {"OID": "IT.CM.CMTRT", "Name": "CMTRT", "Core": "HR", "DataType": "text", "SubmissionDataType": "Char", "Description": {"TranslatedText": [{"lang": "en", "_content": "Reported Name of Drug, Med, or Therapy"}]}, "Question": {}, "Alias": [{"Context": "sdtmigDatasetMappingTarget_0", "Name": "CM.CMTRT"}], "Prompt": {"TranslatedText": [{"lang": "en", "_content": "(Concomitant) [Medication/Treatment/Therapy]"}]}, "CRFCompletionInstructions": {"TranslatedText": [{"lang": "en", "_content": "Record only 1 [medication/treatment/therapy] per line. Provide the full trade or proprietary name of the [medication/treatment/therapy]; otherwise the generic name may be recorded."}]}, "ImplementationNotes": {"TranslatedText": [{"lang": "en", "_content": "In most cases, the verbatim drug names or treatment will be coded to a standard dictionary (e.g., WHODrug) after data have been collected on the CRF. For the collection of verbatim drug name or treatments, the recommendation is for sites to provide the full trade or proprietary name, which is more exact than the generic. The full trade name provides the base generic and the appropriate salt for that particular drug. In addition, for coding purposes, it helps with ATC selection (e.g., Tylenol with codeine #1 has a different ATC code than Tylenol with codeine #3). This field can be used for either prior or concomitant medication/treatments."}]}, "MappingInstructions": {"TranslatedText": [{"lang": "en", "_content": "Maps directly to the SDTMIG variable listed in the SDTMIG Target column."}]}, "Definition": {"TranslatedText": [{"lang": "en", "_content": "Verbatim medication name or treatments (include only treatments with data collection characteristics similar to medications)."}]}}, {"OID": "IT.CM.CMPRESP", "Name": "CMPRESP", "Core": "O", "DataType": "text", "SubmissionDataType": "Char", "Description": {"TranslatedText": [{"lang": "en", "_content": "CM Pre-Specified"}]}, "CodeListRef": {"CodeListOID": "CL.C66742"}, "Alias": [{"Context": "sdtmigDatasetMappingTarget_0", "Name": "CM.CMPRESP"}], "ImplementationNotes": {"TranslatedText": [{"lang": "en", "_content": "For pre-specified interventions, this is a hidden field on a CRF defaulted to \"Y\", or added during the SDTM dataset creation. If a study collects both pre-specified and free-text interventions, the value of CMPRESP should be \"Y\" for all pre-specified interventions and null for interventions reported as free text."}]}, "MappingInstructions": {"TranslatedText": [{"lang": "en", "_content": "Maps directly to the SDTMIG variable listed in the SDTMIG Target column."}]}, "Definition": {"TranslatedText": [{"lang": "en", "_content": "An indication that a specific intervention or a group of interventions is pre-specified on a CRF."}]}}, {"OID": "IT.CM.CMOCCUR", "Name": "CMOCCUR", "Core": "O", "DataType": "text", "SubmissionDataType": "Char", "Description": {"TranslatedText": [{"lang": "en", "_content": "CM Occurrence"}]}, "Question": {}, "CodeListRef": {"CodeListOID": "CL.C66742"}, "Alias": [{"Context": "sdtmigDatasetMappingTarget_0", "Name": "CM.CMOCCUR"}], "Prompt": {"TranslatedText": [{"lang": "en", "_content": "[Specific (Concomitant) [Medication/Treatment/Therapy]"}]}, "CRFCompletionInstructions": {"TranslatedText": [{"lang": "en", "_content": "Indicate if [specific medication/treatment] was taken by checking Yes or No."}]}, "ImplementationNotes": {"TranslatedText": [{"lang": "en", "_content": "CMOCCUR is used to report the occurrence of a pre-specified medication/treatment. CMOCCUR is not used for spontaneously free-text reported concomitant medication/treatments. The site should be able to indicate that the question was not asked or answered."}]}, "MappingInstructions": {"TranslatedText": [{"lang": "en", "_content": "Maps directly to the SDTMIG variable listed in the SDTMIG Target column. If the question was not asked or answered, populate the SDTMIG variable CMSTAT with \"NOT DONE\"."}]}, "Definition": {"TranslatedText": [{"lang": "en", "_content": "An indication whether the prespecified medication/treatment/therapy (CMTRT) or the group of medications/treatments/therapies was administered when information about the occurrence of a specific intervention was solicited."}]}}, {"OID": "IT.CM.CMINGRD", "Name": "CMINGRD", "Core": "O", "DataType": "text", "SubmissionDataType": "Char", "Description": {"TranslatedText": [{"lang": "en", "_content": "Concomitant Meds Active Ingredients"}]}, "Question": {}, "Prompt": {"TranslatedText": [{"lang": "en", "_content": "Active Ingredients"}]}, "CRFCompletionInstructions": {"TranslatedText": [{"lang": "en", "_content": "Prior to a subject's clinical visit, remind all subjects to bring all medications bottles, packs etc. they are taking with them to their clinical visit. Record all active ingredient(s) off the medication label and separate each ingredient with a comma for the name of drug medication or treatment taken. For example, the medication Dolmen, if manufactured in Spain, the active ingredients should be collected as noted below: Active Ingredient: Acetylsalicylic Acid, Ascorbic acid, codeine phosphate."}]}, "ImplementationNotes": {"TranslatedText": [{"lang": "en", "_content": "This may be collected in addition to the medication/treatment name. Collecting this provides more detailed information when coding to a medication dictionary like WHODrug Dictionary Enhanced Format C, which codes to the ingredient level for many trade-name medications. For example, depending on the country where it is manufactured, the active ingredients in the medication dolmen may be different: In Spain, acetylsalicylic acid, ascorbic acid, codeine phosphate; in Italy and Czech Republic, tenoxicam; in Estonia and Latvia, dexketoprofen trometamol."}]}, "MappingInstructions": {"TranslatedText": [{"lang": "en", "_content": "Does not map to an SDTMIG variable. The SDTM annotated CRF indicates that this field is NOT SUBMITTED."}]}, "Definition": {"TranslatedText": [{"lang": "en", "_content": "Medication ingredients."}]}}, {"OID": "IT.CM.CMINDC", "Name": "CMINDC", "Core": "R/C", "DataType": "text", "SubmissionDataType": "Char", "Description": {"TranslatedText": [{"lang": "en", "_content": "CM Indication"}]}, "Question": {}, "Alias": [{"Context": "sdtmigDatasetMappingTarget_0", "Name": "CM.CMINDC"}], "Prompt": {"TranslatedText": [{"lang": "en", "_content": "Indication"}]}, "CRFCompletionInstructions": {"TranslatedText": [{"lang": "en", "_content": "Record the reason the medication was taken based on clinical investigator's evaluation. If taken to treat a condition, and a diagnosis was made, the indication should be the diagnosis. If taken to treat a condition, and no diagnosis was made, the indication should be the signs and symptoms. If taken as prophylaxis, report as \"Prophylaxis for \" and include a description of the condition(s)."}]}, "ImplementationNotes": {"TranslatedText": [{"lang": "en", "_content": "This is not the pharmacological/therapeutic classification of an agent (e.g., antibiotic, analgesic), but rather the reason for its administration to the subject. This additional information is collected on the CRF when sponsors want to capture the reason(s) a subject took a medication/treatment. This information could be used as deemed appropriate for coding; analysis (e.g., in the classification of medications); reconciling medications/treatments taken by a subject with provided medical history; and/or AEs/SAEs, as part of the data clean-up and monitoring process."}]}, "MappingInstructions": {"TranslatedText": [{"lang": "en", "_content": "Maps directly to the SDTMIG variable listed in the SDTMIG Target column."}]}, "Definition": {"TranslatedText": [{"lang": "en", "_content": "The condition, disease, symptom, or disorder that the concomitant (non-study) medication/treatment/therapy was used to address or investigate (e.g., why the medication/treatment/therapy was taken or administered)."}]}}, {"OID": "IT.CM.CMAENO", "Name": "CMAENO", "Core": "O", "DataType": "text", "SubmissionDataType": "Char", "Description": {"TranslatedText": [{"lang": "en", "_content": "Related Adverse Event ID"}]}, "Question": {}, "Prompt": {"TranslatedText": [{"lang": "en", "_content": "Adverse Event Identifier"}]}, "CRFCompletionInstructions": {"TranslatedText": [{"lang": "en", "_content": "Record the identifier of the Adverse Event for which this (concomitant) [medication/treatment/therapy] was taken."}]}, "ImplementationNotes": {"TranslatedText": [{"lang": "en", "_content": "The intent is to establish a link between the medication/treatment and the AE that was reported. CMAENO can be used to identify a relationship between records in CM dataset and records in the AE dataset. See the SDTMIG for information on RELREC."}]}, "MappingInstructions": {"TranslatedText": [{"lang": "en", "_content": "This does not map directly to an SDTMIG variable. For SDTM submission datasets, may be used to create RELREC to link this record with a record in the AE domain."}]}, "Definition": {"TranslatedText": [{"lang": "en", "_content": "Identifier for the adverse event that is the indication for this medication/treatment/therapy."}]}}, {"OID": "IT.CM.CMMHNO", "Name": "CMMHNO", "Core": "O", "DataType": "text", "SubmissionDataType": "Char", "Description": {"TranslatedText": [{"lang": "en", "_content": "Related Medical History Event ID"}]}, "Question": {}, "Prompt": {"TranslatedText": [{"lang": "en", "_content": "Medical History Event Identifier"}]}, "CRFCompletionInstructions": {"TranslatedText": [{"lang": "en", "_content": "Record the identifier of the medical history event for which this (concomitant) [medication/treatment/therapy] was taken."}]}, "ImplementationNotes": {"TranslatedText": [{"lang": "en", "_content": "The intent is to establish a link between the medical history condition and the medication/treatment taken for the condition. CMMHNO can be used to identify a relationship between records in the CM dataset and records in the MH dataset. See the SDTMIG for information on RELREC."}]}, "MappingInstructions": {"TranslatedText": [{"lang": "en", "_content": "This does not map directly to an SDTMIG variable. For SDTM submission datasets, may be used to create RELREC to link this record with a record in the MH domain."}]}, "Definition": {"TranslatedText": [{"lang": "en", "_content": "Identifier for the medical history condition that is the indication for this medication/treatment/therapy."}]}}, {"OID": "IT.CM.CMDOSE", "Name": "CMDOSE", "Core": "O", "DataType": "double", "SubmissionDataType": "Num", "Description": {"TranslatedText": [{"lang": "en", "_content": "CM Dose per Administration"}]}, "Question": {}, "Alias": [{"Context": "sdtmigDatasetMappingTarget_0", "Name": "CM.CMDOSE"}], "Prompt": {"TranslatedText": [{"lang": "en", "_content": "[Dose/Amount] (per administration)"}]}, "CRFCompletionInstructions": {"TranslatedText": [{"lang": "en", "_content": "Record the dose of (concomitant) [medication/treatment] taken per administration (e.g., 200)."}]}, "ImplementationNotes": {"TranslatedText": [{"lang": "en", "_content": "Used when the dose/amount taken/administered/consumed has only numeric entries. If non-numeric entries are possible, use the CDASH field CMDSTXT."}]}, "MappingInstructions": {"TranslatedText": [{"lang": "en", "_content": "Maps directly to the SDTMIG variable listed in the SDTMIG Target column."}]}, "Definition": {"TranslatedText": [{"lang": "en", "_content": "The dose of medication/treatment (e.g., --TRT ) given at one time, represented as a numeric value."}]}}, {"OID": "IT.CM.CMDSTXT", "Name": "CMDSTXT", "Core": "O", "DataType": "text", "SubmissionDataType": "Char", "Description": {"TranslatedText": [{"lang": "en", "_content": "Concomitant Meds Dose Description"}]}, "Question": {}, "Alias": [{"Context": "sdtmigDatasetMappingTarget_0", "Name": "CM.CMDOSTXT"}, {"Context": "sdtmigDatasetMappingTarget_1", "Name": "CM.CMDOSE"}], "Prompt": {"TranslatedText": [{"lang": "en", "_content": "Dose"}]}, "CRFCompletionInstructions": {"TranslatedText": [{"lang": "en", "_content": "Record the dose of (concomitant) [medication/treatment] taken per administration (e.g., 200)."}]}, "ImplementationNotes": {"TranslatedText": [{"lang": "en", "_content": "Defining this data collection field as a dose text field allows for flexibility in capturing dose entries as numbers, text, or ranges. The data collected in this text-format field should be separated or mapped to either SDTMIG CMDOSE if numeric or CMDOSTXT if text."}]}, "MappingInstructions": {"TranslatedText": [{"lang": "en", "_content": "This does not map directly to an SDTMIG variable. Numeric values map to CMDOSE in SDTM. Non-numeric values (e.g., \"200-400\") map to CMDOSTXT in SDTM."}]}, "Definition": {"TranslatedText": [{"lang": "en", "_content": "The dose of medication/treatment taken per administration."}]}}, {"OID": "IT.CM.CMDOSTOT", "Name": "CMDOSTOT", "Core": "O", "DataType": "double", "SubmissionDataType": "Num", "Description": {"TranslatedText": [{"lang": "en", "_content": "CM Total Daily Dose"}]}, "Question": {}, "Alias": [{"Context": "sdtmigDatasetMappingTarget_0", "Name": "CM.CMDOSTOT"}], "Prompt": {"TranslatedText": [{"lang": "en", "_content": "Total Daily Dose"}]}, "CRFCompletionInstructions": {"TranslatedText": [{"lang": "en", "_content": "Record the total dose of (concomitant) [medication/treatment/therapy] taken daily."}]}, "ImplementationNotes": {"TranslatedText": [{"lang": "en", "_content": "For use when only total daily dose is collected on the CRF. For general medications/treatments, it is not recommended to use Total Daily Dose. Instead, this can be calculated from other fields (e.g., Units, Dose, Frequency)."}]}, "MappingInstructions": {"TranslatedText": [{"lang": "en", "_content": "Maps directly to the SDTMIG variable listed in the SDTMIG Target column."}]}, "Definition": {"TranslatedText": [{"lang": "en", "_content": "The total amount of CMTRT taken over a day, using the units in CMDOSU."}]}}, {"OID": "IT.CM.CMDOSU", "Name": "CMDOSU", "Core": "R/C", "DataType": "text", "SubmissionDataType": "Char", "Description": {"TranslatedText": [{"lang": "en", "_content": "CM Dose Units"}]}, "Question": {}, "CodeListRef": {"CodeListOID": "CL.C71620"}, "Alias": [{"Context": "sdtmigDatasetMappingTarget_0", "Name": "CM.CMDOSU"}], "AltCodeListRef": [{"CodeListOID": "CL.C78417"}], "Prompt": {"TranslatedText": [{"lang": "en", "_content": "(Dose) Unit"}]}, "CRFCompletionInstructions": {"TranslatedText": [{"lang": "en", "_content": "Record the dose unit of the dose of concomitant [medication/treatment/therapy] taken (e.g., mg.)."}]}, "ImplementationNotes": {"TranslatedText": [{"lang": "en", "_content": "When sponsors collect data for amount of dose taken (i.e., Dose, Total Daily Dose), Unit must be collected as well (if applicable)."}]}, "MappingInstructions": {"TranslatedText": [{"lang": "en", "_content": "Maps directly to the SDTMIG variable listed in the SDTMIG Target column."}]}, "Definition": {"TranslatedText": [{"lang": "en", "_content": "The unit associated with the concomitant medication/treatment/therapy taken (e.g., mg in \"2 mg 3 times per day\")."}]}}, {"OID": "IT.CM.CMDOSFRM", "Name": "CMDOSFRM", "Core": "O", "DataType": "text", "SubmissionDataType": "Char", "Description": {"TranslatedText": [{"lang": "en", "_content": "CM Dose Form"}]}, "Question": {}, "CodeListRef": {"CodeListOID": "CL.C66726"}, "Alias": [{"Context": "sdtmigDatasetMappingTarget_0", "Name": "CM.CMDOSFRM"}], "AltCodeListRef": [{"CodeListOID": "CL.C78418"}], "Prompt": {"TranslatedText": [{"lang": "en", "_content": "Dose Form"}]}, "CRFCompletionInstructions": {"TranslatedText": [{"lang": "en", "_content": "Record the pharmaceutical dosage form (e.g., TABLET CAPSULE, SYRUP) of delivery for the concomitant [medication/treatment/therapy] taken."}]}, "ImplementationNotes": {"TranslatedText": [{"lang": "en", "_content": "Some drugs have multiple forms; this field may be needed to code the drug to an ATC level. However, in general, this level of detail should not be necessary except for medications/treatments of interest."}]}, "MappingInstructions": {"TranslatedText": [{"lang": "en", "_content": "Maps directly to the SDTMIG variable listed in the SDTMIG Target column."}]}, "Definition": {"TranslatedText": [{"lang": "en", "_content": "The pharmaceutical dosage form in which the CMTRT is physically presented."}]}}, {"OID": "IT.CM.CMDOSFRQ", "Name": "CMDOSFRQ", "Core": "O", "DataType": "text", "SubmissionDataType": "Char", "Description": {"TranslatedText": [{"lang": "en", "_content": "CM Dosing Frequency per Interval"}]}, "Question": {}, "CodeListRef": {"CodeListOID": "CL.C71113"}, "Alias": [{"Context": "sdtmigDatasetMappingTarget_0", "Name": "CM.CMDOSFRQ"}], "AltCodeListRef": [{"CodeListOID": "CL.C78419"}], "Prompt": {"TranslatedText": [{"lang": "en", "_content": "Frequency"}]}, "CRFCompletionInstructions": {"TranslatedText": [{"lang": "en", "_content": "Record how often the (concomitant) [medication/treatment/therapy] was taken (e.g., BID, PRN)."}]}, "ImplementationNotes": {"TranslatedText": [{"lang": "en", "_content": "The frequency of the concomitant medication/treatment. When collected, the recommendation is to collect dosing information in separate fields (e.g., CMDOSE, CMDOSEU, CMDOSFRQ) for specific and consistent data collection and to enable programmatically using these data."}]}, "MappingInstructions": {"TranslatedText": [{"lang": "en", "_content": "Maps directly to the SDTMIG variable listed in the SDTMIG Target column."}]}, "Definition": {"TranslatedText": [{"lang": "en", "_content": "The number of doses given/administered/taken during a specific interval."}]}}, {"OID": "IT.CM.CMROUTE", "Name": "CMROUTE", "Core": "R/C", "DataType": "text", "SubmissionDataType": "Char", "Description": {"TranslatedText": [{"lang": "en", "_content": "CM Route of Administration"}]}, "Question": {}, "CodeListRef": {"CodeListOID": "CL.C66729"}, "Alias": [{"Context": "sdtmigDatasetMappingTarget_0", "Name": "CM.CMROUTE"}], "AltCodeListRef": [{"CodeListOID": "CL.C78420"}], "Prompt": {"TranslatedText": [{"lang": "en", "_content": "Route"}]}, "CRFCompletionInstructions": {"TranslatedText": [{"lang": "en", "_content": "Provide the route of administration for the (concomitant) [medication/treatment/therapy]."}]}, "ImplementationNotes": {"TranslatedText": [{"lang": "en", "_content": "This additional information may be important to collect on the CRF when the sponsor wants to capture a medication's/treatment's route of administration, for purposes such as coding; also, the medication/treatment may have more than 1 route. Some companies may use route in coding medications/treatments, to be able to choose a precise preferred name and ATC code."}]}, "MappingInstructions": {"TranslatedText": [{"lang": "en", "_content": "Maps directly to the SDTMIG variable listed in the SDTMIG Target column."}]}, "Definition": {"TranslatedText": [{"lang": "en", "_content": "The route of administration of the concomitant medication/treatment/therapy."}]}}, {"OID": "IT.CM.CMSTDAT", "Name": "CMSTDAT", "Core": "R/C", "DataType": "text", "SubmissionDataType": "Char", "Description": {"TranslatedText": [{"lang": "en", "_content": "Concomitant Meds Start Date"}]}, "Question": {}, "Alias": [{"Context": "sdtmigDatasetMappingTarget_0", "Name": "CM.CMSTDTC"}], "Prompt": {"TranslatedText": [{"lang": "en", "_content": "Start Date"}]}, "CRFCompletionInstructions": {"TranslatedText": [{"lang": "en", "_content": "Record the date the concomitant [medication/treatment] was first taken using this format (DD-MON-YYYY). If the subject has been taking the concomitant [medication/treatment] for a considerable amount of time prior to the start of the study, it is acceptable to have an incomplete date. Concomitant [medication/treatment] taken during the study are expected to have a complete start date. Prior concomitant [medication/treatment] that are exclusionary should have both a start and end date."}]}, "ImplementationNotes": {"TranslatedText": [{"lang": "en", "_content": "The assumption is that sponsors should either have a Start Date or will indicate that the medication or therapy was started before, during, or after the study period. The preferred method is to collect a complete Start Date. Partial dates (e.g., providing year only) for medications/treatment started a considerable amount of time prior to the start of study are acceptable."}]}, "MappingInstructions": {"TranslatedText": [{"lang": "en", "_content": "This does not map directly to an SDTMIG variable. For the SDTM submission dataset, concatenate all collected CDASH START DATE and TIME components and populate the SDTMIG variable CMSTDTC in ISO 8601 format."}]}, "Definition": {"TranslatedText": [{"lang": "en", "_content": "The start date is when the concomitant medication/treatment/therapy was first taken, represented in an unambiguous date format (e.g., DD-MON-YYYY)."}]}}, {"OID": "IT.CM.CMSTTIM", "Name": "CMSTTIM", "Core": "R/C", "DataType": "text", "SubmissionDataType": "Char", "Description": {"TranslatedText": [{"lang": "en", "_content": "Concomitant Meds Start Time"}]}, "Question": {}, "Alias": [{"Context": "sdtmigDatasetMappingTarget_0", "Name": "CM.CMSTDTC"}], "Prompt": {"TranslatedText": [{"lang": "en", "_content": "Start Time"}]}, "CRFCompletionInstructions": {"TranslatedText": [{"lang": "en", "_content": "Record the time (as complete as possible) that the concomitant [medication/treatment] was started."}]}, "ImplementationNotes": {"TranslatedText": [{"lang": "en", "_content": "Recommend collecting the time a concomitant medication/treatment was started only when a protocol or data collection scenarios supports it. Typically, a start time is not collected unless the subject is under the direct care of the site at the time a concomitant medication/treatment administered or the subject records the start time in a diary."}]}, "MappingInstructions": {"TranslatedText": [{"lang": "en", "_content": "This does not map directly to an SDTMIG variable. For the SDTM submission dataset, concatenate all collected CDASH START DATE and TIME components and populate the SDTMIG variable CMSTDTC in ISO 8601 format."}]}, "Definition": {"TranslatedText": [{"lang": "en", "_content": "The time the concomitant medication/treatment/therapy was started, represented in an unambiguous time format (e.g., hh:mm:ss)."}]}}, {"OID": "IT.CM.CMPRIOR", "Name": "CMPRIOR", "Core": "O", "DataType": "text", "SubmissionDataType": "Char", "Description": {"TranslatedText": [{"lang": "en", "_content": "Prior Concomitant Meds"}]}, "Question": {}, "CodeListRef": {"CodeListOID": "CL.C66742"}, "Alias": [{"Context": "sdtmigDatasetMappingTarget_0", "Name": "CM.CMSTRF"}, {"Context": "sdtmigDatasetMappingTarget_1", "Name": "CM.CMSTRTPT"}], "Prompt": {"TranslatedText": [{"lang": "en", "_content": "Prior to [CMSTTPT]; Prior to Study"}]}, "CRFCompletionInstructions": {"TranslatedText": [{"lang": "en", "_content": "Check if the concomitant [medication/treatment/therapy] was started before the study."}]}, "ImplementationNotes": {"TranslatedText": [{"lang": "en", "_content": "Sponsors may collect this information rather than start dates. See Section 3.7, Mapping Relative Times from Collection to Submissions, and the SDTMIG for more information."}]}, "MappingInstructions": {"TranslatedText": [{"lang": "en", "_content": "This does not map directly to an SDTMIG variable. May be used to populate a value into an SDTM relative timing variable such as CMSTRF or CMSTRTPT. When populating CMSTRF, or CMSTRTPT, if the value of the CDASH field CMPRIOR is \"Y\" a value from the CDISC CT (STENRF) may be used. When CMPRIOR refers to the Study Reference Period (defined in DM.RFSTDTC to DM.RFENDTC), the SDTM variable CMSTRF should be populated. When CMPRIOR is compared to another time point, the SDTM variables CMSTRTPT and CMSTTPT should be used. Note: CMSTRTPT must refer to the time-point anchor described in CMSTTPT."}]}, "Definition": {"TranslatedText": [{"lang": "en", "_content": "Indication the concomitant medication/treatment/therapy was given or taken prior to [CMSTTPT] or prior to the date in DM.RFSTDTC."}]}}, {"OID": "IT.CM.CMONGO", "Name": "CMONGO", "Core": "R/C", "DataType": "text", "SubmissionDataType": "Char", "Description": {"TranslatedText": [{"lang": "en", "_content": "Ongoing Concomitant Meds"}]}, "Question": {}, "CodeListRef": {"CodeListOID": "CL.C66742"}, "Alias": [{"Context": "sdtmigDatasetMappingTarget_0", "Name": "CM.CMENRF"}, {"Context": "sdtmigDatasetMappingTarget_1", "Name": "CM.CMENRTPT"}], "Prompt": {"TranslatedText": [{"lang": "en", "_content": "Ongoing (as of [the study-specific time point or period])"}]}, "CRFCompletionInstructions": {"TranslatedText": [{"lang": "en", "_content": "Record the concomitant [medication/treatment/therapy] as ongoing if the subject has not stopped taking the concomitant [medication/treatment/therapy] at [the timepoint defined by the study]. If the concomitant medication is ongoing, the end date should be left blank"}]}, "ImplementationNotes": {"TranslatedText": [{"lang": "en", "_content": "This box should be checked to indicate that the concomitant medication/treatment has not stopped at the time of data collection. It is expected that every recorded medication/treatment should have either an end date or be checked as ongoing, but not both. However, in cases where ongoing concomitant medications/treatments are not permitted, it may not be necessary to include an Ongoing field in the CRF. See Section 3.7, Mapping Relative Times from Collection to Submission, for more information about collecting relative date/time; see the SDTMIG for information about mapping relative times."}]}, "MappingInstructions": {"TranslatedText": [{"lang": "en", "_content": "This does not map directly to an SDTM variable. May be used to populate a value into an SDTMIG relative timing variable (e.g., CMENRF, CMENRTPT). When populating CMENRF, if the value of CMONGO is \"Y\", the values of \"DURING\", \"AFTER\", or \"DURING/AFTER\" may be used. When populating CMENRTPT, if the value of CMONGO is \"Y\", the value of \"ONGOING\" may be used. When CMONGO refers to the Study Reference Period (defined in DM.RFSTDTC to DM.RFENDTC) the SDTM variable CMENRF should be populated. When CMONGO is used in conjunction with another time point, the SDTM variables CMENRTPT and CMENTPT should be used. Note: CMENRTPT must refer to a time-point anchor described in CMENTPT."}]}, "Definition": {"TranslatedText": [{"lang": "en", "_content": "Indication the concomitant medication/treatment/therapy is ongoing when no end date is provided."}]}}, {"OID": "IT.CM.CMENDAT", "Name": "CMENDAT", "Core": "R/C", "DataType": "text", "SubmissionDataType": "Char", "Description": {"TranslatedText": [{"lang": "en", "_content": "Concomitant Meds End Date"}]}, "Question": {}, "Alias": [{"Context": "sdtmigDatasetMappingTarget_0", "Name": "CM.CMENDTC"}], "Prompt": {"TranslatedText": [{"lang": "en", "_content": "End Date"}]}, "CRFCompletionInstructions": {"TranslatedText": [{"lang": "en", "_content": "Record the date the concomitant [medication/treatment] was stopped using this format (DD-MON-YYYY). If the subject has not stopped taking the concomitant [medication/treatment] leave this field blank."}]}, "ImplementationNotes": {"TranslatedText": [{"lang": "en", "_content": "The assumption is that sponsors should either have an End Date or will indicate that the medication or therapy was ongoing at the time of collection or at the end of the study. However, in cases where the end date can be determined from dates collected elsewhere in the CRF it is not necessary to include an End Date field on the CRF. For example, if all concomitant medications/treatments are administered only once during a trial, the end date will be the same as the start date."}]}, "MappingInstructions": {"TranslatedText": [{"lang": "en", "_content": "This does not map directly to an SDTMIG variable. For the SDTM submission dataset, concatenate all collected CDASH END DATE and TIME components and populate the SDTMIG variable CMENDTC in ISO 8601 format."}]}, "Definition": {"TranslatedText": [{"lang": "en", "_content": "The date that the subject ended/stopped taking the concomitant medication/treatment/therapy, represented in an unambiguous date format (e.g., DD-MON-YYYY)."}]}}, {"OID": "IT.CM.CMENTIM", "Name": "CMENTIM", "Core": "R/C", "DataType": "text", "SubmissionDataType": "Char", "Description": {"TranslatedText": [{"lang": "en", "_content": "Concomitant Meds End Time"}]}, "Question": {}, "Alias": [{"Context": "sdtmigDatasetMappingTarget_0", "Name": "CM.CMENDTC"}], "Prompt": {"TranslatedText": [{"lang": "en", "_content": "End Time"}]}, "CRFCompletionInstructions": {"TranslatedText": [{"lang": "en", "_content": "Record the time (as complete as possible) that the concomitant medication/treatment was stopped."}]}, "ImplementationNotes": {"TranslatedText": [{"lang": "en", "_content": "Recommend collecting the time a concomitant medication or treatment was ended only when a protocol or data collection scenario requires it or the subject records the end time in a diary. Typically, an end time is not collected unless the subject is under the direct care of the site at the time a concomitant medication/treatment is stopped."}]}, "MappingInstructions": {"TranslatedText": [{"lang": "en", "_content": "This does not map directly to an SDTMIG variable. For the SDTM submission dataset, concatenate all collected CDASH END DATE and TIME components and populate the SDTMIG variable CMENDTC in ISO 8601 format."}]}, "Definition": {"TranslatedText": [{"lang": "en", "_content": "The time when the subject ended/stopped taking the concomitant medication/treatment/therapy, represented in an unambiguous time format (e.g., hh:mm:ss)."}]}}, {"OID": "IT.CM.CMRSDISC", "Name": "CMRSDISC", "Core": "O", "DataType": "text", "SubmissionDataType": "Char", "Description": {"TranslatedText": [{"lang": "en", "_content": "Reason for Treatment Discontinuation"}]}, "Question": {}, "Alias": [{"Context": "sdtmigDatasetMappingTarget_0", "Name": "CM.CMRSDISC"}], "Prompt": {"TranslatedText": [{"lang": "en", "_content": "Reason for discontinuation of concomitant medication/treatment"}]}, "CRFCompletionInstructions": {"TranslatedText": [{"lang": "en", "_content": "Record the reason the concomitant medication/treatment was stopped."}]}, "ImplementationNotes": {"TranslatedText": [{"lang": "en", "_content": "Although frequently used for prior meds, this can be used for any intervention at any timepoint. \\n When the dosing of a treatment is recorded over multiple successive records, this variable is applicable only for the (chronologically) last record for the treatment."}]}, "MappingInstructions": {"TranslatedText": [{"lang": "en", "_content": "Maps directly to the SDTMIG variable listed in the SDTMIG Target column."}]}, "Definition": {"TranslatedText": [{"lang": "en", "_content": "The reason the treatment was discontinued."}]}}, {"OID": "IT.CM.CMDECOD", "Name": "CMDECOD", "Core": "O", "DataType": "text", "SubmissionDataType": "Char", "Description": {"TranslatedText": [{"lang": "en", "_content": "Standardized Medication Name"}]}, "Alias": [{"Context": "sdtmigDatasetMappingTarget_0", "Name": "CM.CMDECOD"}], "ImplementationNotes": {"TranslatedText": [{"lang": "en", "_content": "This field does not typically appear on the CRF. Sponsors will populate this through the coding process. Equivalent to the generic drug name in published (e.g., WHODrug, SNOMED, ICD9) or sponsor-defined dictionaries."}]}, "MappingInstructions": {"TranslatedText": [{"lang": "en", "_content": "Maps directly to the SDTMIG variable listed in the SDTMIG Target column."}]}, "Definition": {"TranslatedText": [{"lang": "en", "_content": "The dictionary or sponsor-defined standardized text description of the topic variable, CMTRT, or the modified topic variable (CMMODIFY), if applicable."}]}}, {"OID": "IT.CM.CMCLAS", "Name": "CMCLAS", "Core": "O", "DataType": "text", "SubmissionDataType": "Char", "Description": {"TranslatedText": [{"lang": "en", "_content": "CM Medication Class"}]}, "Alias": [{"Context": "sdtmigDatasetMappingTarget_0", "Name": "CM.CMCLAS"}], "ImplementationNotes": {"TranslatedText": [{"lang": "en", "_content": "This field does not typically appear on the CRF. Sponsors will populate this through the coding process. This would generally be the class used for analysis."}]}, "MappingInstructions": {"TranslatedText": [{"lang": "en", "_content": "Maps directly to the SDTMIG variable listed in the SDTMIG Target column."}]}, "Definition": {"TranslatedText": [{"lang": "en", "_content": "The class for the intervention (often obtained from a coding dictionary)."}]}}, {"OID": "IT.CM.CMCLASCD", "Name": "CMCLASCD", "Core": "O", "DataType": "double", "SubmissionDataType": "Num", "Description": {"TranslatedText": [{"lang": "en", "_content": "CM Medication Class Code"}]}, "Alias": [{"Context": "sdtmigDatasetMappingTarget_0", "Name": "CM.CMCLASCD"}], "ImplementationNotes": {"TranslatedText": [{"lang": "en", "_content": "This field does not typically appear on the CRF. Sponsors will populate this through the coding process. This would generally be the class code used for analysis."}]}, "MappingInstructions": {"TranslatedText": [{"lang": "en", "_content": "Maps directly to the SDTMIG variable listed in the SDTMIG Target column."}]}, "Definition": {"TranslatedText": [{"lang": "en", "_content": "The assigned dictionary code for the class for the intervention."}]}}, {"OID": "IT.CM.CMATC1", "Name": "CMATC1", "Core": "O", "DataType": "text", "SubmissionDataType": "Char", "Description": {"TranslatedText": [{"lang": "en", "_content": "ATC Level 1 Description"}]}, "Alias": [{"Context": "sdtmigDatasetMappingTarget_0", "Name": "SUPPQUAL.QVAL"}], "ImplementationNotes": {"TranslatedText": [{"lang": "en", "_content": "This field does not typically appear on the CRF. This is populated through the sponsor's coding process."}]}, "MappingInstructions": {"TranslatedText": [{"lang": "en", "_content": "This does not map directly to an SDTMIG variable. This information could be submitted in a SUPPCM dataset as the value of SUPPCM.QVAL where SUPPCM.QNAM=\"CMATC1\" and SUPPCM.QLABEL=\"ATC Level 1 Description\". Sponsors should include an Origin column in the SUPPQ dataset to indicate that the data was \"ASSIGNED\". Refer to the current SDTM and SDTMIG for instructions on placement of non-standard variables (NSVs) in SDTM domains."}]}, "Definition": {"TranslatedText": [{"lang": "en", "_content": "Dictionary text description of the first level of hierarchy within the Anatomical Therapeutic Chemical (ATC) classification system; indicates the anatomical main group."}]}}, {"OID": "IT.CM.CMATC1CD", "Name": "CMATC1CD", "Core": "O", "DataType": "double", "SubmissionDataType": "Num", "Description": {"TranslatedText": [{"lang": "en", "_content": "ATC Level 1 Code"}]}, "Alias": [{"Context": "sdtmigDatasetMappingTarget_0", "Name": "SUPPQUAL.QVAL"}], "ImplementationNotes": {"TranslatedText": [{"lang": "en", "_content": "This field does not typically appear on the CRF. This is populated through the sponsor's coding process."}]}, "MappingInstructions": {"TranslatedText": [{"lang": "en", "_content": "This does not map directly to an SDTMIG variable. This information could be submitted in a SUPPCM dataset as the value of SUPPCM.QVAL where SUPPCM.QNAM =\"MATC1CD\" and SUPPCM.QLABEL=\"ATC Level 1 Code\". Sponsors should include an Origin column in the SUPPQ dataset to indicate that the data was \"ASSIGNED\"."}]}, "Definition": {"TranslatedText": [{"lang": "en", "_content": "Dictionary code denoting the first level of hierarchy within the ATC classification system; indicates the anatomical main group."}]}}, {"OID": "IT.CM.CMATC2", "Name": "CMATC2", "Core": "O", "DataType": "text", "SubmissionDataType": "Char", "Description": {"TranslatedText": [{"lang": "en", "_content": "ATC Level 2 Description"}]}, "Alias": [{"Context": "sdtmigDatasetMappingTarget_0", "Name": "SUPPQUAL.QVAL"}], "ImplementationNotes": {"TranslatedText": [{"lang": "en", "_content": "This field does not typically appear on the CRF. This is populated through the sponsor's coding process."}]}, "MappingInstructions": {"TranslatedText": [{"lang": "en", "_content": "This does not map directly to an SDTMIG variable. This information could be submitted in a SUPPCM dataset as the value of SUPPCM.QVAL where SUPPCM.QNAM=\"CMATC2\" and SUPPCM.QLABEL=\"ATC Level 2 Description\". Sponsors should include an Origin column in the SUPPQ dataset to indicate that the data was \"ASSIGNED\". Refer to the current SDTM and SDTMIG for instructions on placement of NSVs in SDTM domains."}]}, "Definition": {"TranslatedText": [{"lang": "en", "_content": "Dictionary text description for the second level of hierarchy within the ATC classification system; indicates the therapeutic main group."}]}}, {"OID": "IT.CM.CMATC2CD", "Name": "CMATC2CD", "Core": "O", "DataType": "double", "SubmissionDataType": "Num", "Description": {"TranslatedText": [{"lang": "en", "_content": "ATC Level 2 Code"}]}, "Alias": [{"Context": "sdtmigDatasetMappingTarget_0", "Name": "SUPPQUAL.QVAL"}], "ImplementationNotes": {"TranslatedText": [{"lang": "en", "_content": "This field does not typically appear on the CRF. This is populated through the sponsor's coding process."}]}, "MappingInstructions": {"TranslatedText": [{"lang": "en", "_content": "This does not map directly to an SDTMIG variable. This information could be submitted in a SUPPCM dataset as the value of SUPPCM.QVAL where SUPPCM.QNAM=\"CMATC2CD\" and SUPPCM.QLABEL=\"ATC Level 2 Code\". Sponsors should include an Origin column in the SUPPQ dataset to indicate that the data was \"ASSIGNED\"."}]}, "Definition": {"TranslatedText": [{"lang": "en", "_content": "Dictionary code denoting the second level of hierarchy within the ATC classification system; indicates the therapeutic main group."}]}}, {"OID": "IT.CM.CMATC3", "Name": "CMATC3", "Core": "O", "DataType": "text", "SubmissionDataType": "Char", "Description": {"TranslatedText": [{"lang": "en", "_content": "ATC Level 3 Description"}]}, "Alias": [{"Context": "sdtmigDatasetMappingTarget_0", "Name": "SUPPQUAL.QVAL"}], "ImplementationNotes": {"TranslatedText": [{"lang": "en", "_content": "This field does not typically appear on the CRF. This is populated through the sponsor's coding process."}]}, "MappingInstructions": {"TranslatedText": [{"lang": "en", "_content": "This does not map directly to an SDTMIG variable. This information could be submitted in a SUPPCM dataset as the value of SUPPCM.QVAL where SUPPCM.QNAM=\"CMATC3\" and SUPPCM.QLABEL=\"ATC Level 3 Description\". Sponsors should include an Origin column in the SUPPQ dataset to indicate that the data was \"ASSIGNED\". Refer to the current SDTM and SDTMIG for instructions on placement of NSVs in SDTM domains."}]}, "Definition": {"TranslatedText": [{"lang": "en", "_content": "Dictionary text description of the third level of hierarchy within the ATC classification system; indicates the therapeutic/pharmacological subgroup."}]}}, {"OID": "IT.CM.CMATC3CD", "Name": "CMATC3CD", "Core": "O", "DataType": "double", "SubmissionDataType": "Num", "Description": {"TranslatedText": [{"lang": "en", "_content": "ATC Level 3 Code"}]}, "Alias": [{"Context": "sdtmigDatasetMappingTarget_0", "Name": "SUPPQUAL.QVAL"}], "ImplementationNotes": {"TranslatedText": [{"lang": "en", "_content": "This field does not typically appear on the CRF. This is populated through the sponsor's coding process."}]}, "MappingInstructions": {"TranslatedText": [{"lang": "en", "_content": "This does not map directly to an SDTMIG variable. This information could be submitted in a SUPPCM dataset as the value of SUPPCM.QVAL where SUPPCM.QNAM=\"CMATC3CD\" and SUPPCM.QLABEL=\"ATC Level 3 Code\". Sponsors should include an Origin column in the SUPPQ dataset to indicate that the data was \"ASSIGNED\"."}]}, "Definition": {"TranslatedText": [{"lang": "en", "_content": "Dictionary code denoting the third level of hierarchy within the ATC classification system; indicates the therapeutic/pharmacological subgroup."}]}}, {"OID": "IT.CM.CMATC4", "Name": "CMATC4", "Core": "O", "DataType": "text", "SubmissionDataType": "Char", "Description": {"TranslatedText": [{"lang": "en", "_content": "ATC Level 4 Description"}]}, "Alias": [{"Context": "sdtmigDatasetMappingTarget_0", "Name": "SUPPQUAL.QVAL"}], "ImplementationNotes": {"TranslatedText": [{"lang": "en", "_content": "This field does not typically appear on the CRF. This is populated through the sponsor's coding process."}]}, "MappingInstructions": {"TranslatedText": [{"lang": "en", "_content": "This does not map directly to an SDTMIG variable. This information could be submitted in a SUPPCM dataset as the value of SUPPCM.QVAL where SUPPCM.QNAM=\"CMATC4\" and SUPPCM.QLABEL=\"ATC Level 4 Description\". Sponsors should include an Origin column in the SUPPQ dataset to indicate that the data was \"ASSIGNED\". Refer to the current SDTM and SDTMIG for instructions on placement of NSVs in SDTM domains."}]}, "Definition": {"TranslatedText": [{"lang": "en", "_content": "Dictionary text description of the fourth level of hierarchy within the ATC classification system; indicates the chemical/therapeutic/pharmacological subgroup."}]}}, {"OID": "IT.CM.CMATC4CD", "Name": "CMATC4CD", "Core": "O", "DataType": "double", "SubmissionDataType": "Num", "Description": {"TranslatedText": [{"lang": "en", "_content": "ATC Level 4 Code"}]}, "Alias": [{"Context": "sdtmigDatasetMappingTarget_0", "Name": "SUPPQUAL.QVAL"}], "ImplementationNotes": {"TranslatedText": [{"lang": "en", "_content": "This field does not typically appear on the CRF. This is populated through the sponsor's coding process."}]}, "MappingInstructions": {"TranslatedText": [{"lang": "en", "_content": "This does not map directly to an SDTMIG variable. This information could be submitted in a SUPPCM dataset as the value of SUPPCM.QVAL where SUPPCM.QNAM=\"CMATC4CD\" and SUPPCM.QLABEL=\"ATC Level 4 Code\". Sponsors should include an Origin column in the SUPPQ dataset to indicate that the data was \"ASSIGNED\"."}]}, "Definition": {"TranslatedText": [{"lang": "en", "_content": "Dictionary code denoting the fourth level of hierarchy within the ATC classification system; indicates the chemical/therapeutic/pharmacological subgroup."}]}}, {"OID": "IT.CM.CMATC5", "Name": "CMATC5", "Core": "O", "DataType": "text", "SubmissionDataType": "Char", "Description": {"TranslatedText": [{"lang": "en", "_content": "ATC Level 5 Description"}]}, "Alias": [{"Context": "sdtmigDatasetMappingTarget_0", "Name": "SUPPQUAL.QVAL"}], "ImplementationNotes": {"TranslatedText": [{"lang": "en", "_content": "This field does not typically appear on the CRF. This is populated through the sponsor's coding process."}]}, "MappingInstructions": {"TranslatedText": [{"lang": "en", "_content": "This does not map directly to an SDTMIG variable. This information could be submitted in a SUPPCM dataset as the value of SUPPCM.QVAL where SUPPCM.QNAM=\"CMATC5\" and SUPPCM.QLABEL=\"ATC Level 5 Description\". Sponsors should include an Origin column in the SUPPQ dataset to indicate that the data was \"ASSIGNED\". Refer to the current SDTM and SDTMIG for instructions on placement of NSVs in SDTM domains."}]}, "Definition": {"TranslatedText": [{"lang": "en", "_content": "Dictionary text description of the fifth level of hierarchy within the ATC classification system; indicates the chemical substance."}]}}, {"OID": "IT.CM.CMATC5CD", "Name": "CMATC5CD", "Core": "O", "DataType": "double", "SubmissionDataType": "Num", "Description": {"TranslatedText": [{"lang": "en", "_content": "ATC Level 5 Code"}]}, "Alias": [{"Context": "sdtmigDatasetMappingTarget_0", "Name": "SUPPQUAL.QVAL"}], "ImplementationNotes": {"TranslatedText": [{"lang": "en", "_content": "This field does not typically appear on the CRF. This is populated through the sponsor's coding process."}]}, "MappingInstructions": {"TranslatedText": [{"lang": "en", "_content": "This does not map directly to an SDTMIG variable. This information could be submitted in a SUPPCM dataset as the value of SUPPCM.QVAL where SUPPCM.QNAM=\"CMATC5CD\" and SUPPCM.QLABEL=\"ATC Level 5 Code\". Sponsors should include an Origin column in the SUPPQ dataset to indicate that the data was \"ASSIGNED\"."}]}, "Definition": {"TranslatedText": [{"lang": "en", "_content": "Dictionary code denoting the fifth level of hierarchy within the ATC classification system; indicates the chemical substance."}]}}, {"OID": "IT.EC.STUDYID", "Name": "STUDYID", "Core": "HR", "DataType": "text", "SubmissionDataType": "Char", "Description": {"TranslatedText": [{"lang": "en", "_content": "Study Identifier"}]}, "Question": {}, "Alias": [{"Context": "sdtmigDatasetMappingTarget_0", "Name": "EC.STUDYID"}], "Prompt": {"TranslatedText": [{"lang": "en", "_content": "[Protocol/Study]"}]}, "ImplementationNotes": {"TranslatedText": [{"lang": "en", "_content": "Although this field is not typically captured on a CRF, it should be displayed clearly on the CRF and/or in the EDC system. This field can be included in the database or populated during SDTM-based dataset creation before submission."}]}, "MappingInstructions": {"TranslatedText": [{"lang": "en", "_content": "Maps directly to the SDTMIG variable listed in the SDTMIG Target column."}]}, "Definition": {"TranslatedText": [{"lang": "en", "_content": "A unique identifier for a study."}]}}, {"OID": "IT.EC.SITEID", "Name": "SITEID", "Core": "HR", "DataType": "text", "SubmissionDataType": "Char", "Description": {"TranslatedText": [{"lang": "en", "_content": "Study Site Identifier"}]}, "Question": {}, "Alias": [{"Context": "sdtmigDatasetMappingTarget_0", "Name": "DM.SITEID"}], "Prompt": {"TranslatedText": [{"lang": "en", "_content": "Site (Identifier)"}]}, "ImplementationNotes": {"TranslatedText": [{"lang": "en", "_content": "Paper: This is typically pre-printed in the header of each CRF page for single-site studies. For studies with multiple sites, this field may be left blank so that the number can be recorded by the site, or it may be pre-printed on the CRFs that are shipped to each site. \\n EDC: This should be pre-populated."}]}, "MappingInstructions": {"TranslatedText": [{"lang": "en", "_content": "Maps directly to the SDTMIG variable listed in the SDTMIG Target column."}]}, "Definition": {"TranslatedText": [{"lang": "en", "_content": "A unique identifier for a site within a study."}]}}, {"OID": "IT.EC.SUBJID", "Name": "SUBJID", "Core": "HR", "DataType": "text", "SubmissionDataType": "Char", "Description": {"TranslatedText": [{"lang": "en", "_content": "Subject Identifier for the Study"}]}, "Question": {}, "Alias": [{"Context": "sdtmigDatasetMappingTarget_0", "Name": "DM.SUBJID"}], "Prompt": {"TranslatedText": [{"lang": "en", "_content": "[Subject/Participant] (Identifier)"}]}, "CRFCompletionInstructions": {"TranslatedText": [{"lang": "en", "_content": "Record the identifier for the subject."}]}, "ImplementationNotes": {"TranslatedText": [{"lang": "en", "_content": "Paper: This is typically recorded in the header of each CRF page. \\n EDC: The subject identifiers may be system generated. \\n This CDASH variable is typically collected in all CDASH domains. However, this CDASH variable is populated only in the SDTMIG DM domain. For more information, refer to the SDTMIG."}]}, "MappingInstructions": {"TranslatedText": [{"lang": "en", "_content": "Maps directly to the SDTMIG variable listed in the SDTMIG Target column."}]}, "Definition": {"TranslatedText": [{"lang": "en", "_content": "A unique subject identifier within a site and a study."}]}}, {"OID": "IT.EC.EPOCH", "Name": "EPOCH", "Core": "R/C", "DataType": "text", "SubmissionDataType": "Char", "Description": {"TranslatedText": [{"lang": "en", "_content": "Epoch"}]}, "Question": {}, "CodeListRef": {"CodeListOID": "CL.C99079"}, "Alias": [{"Context": "sdtmigDatasetMappingTarget_0", "Name": "EC.EPOCH"}], "Prompt": {"TranslatedText": [{"lang": "en", "_content": "[Epoch](Period/Phase/Sponsor-defined phrase)"}]}, "CRFCompletionInstructions": {"TranslatedText": [{"lang": "en", "_content": "[protocol specific]"}]}, "ImplementationNotes": {"TranslatedText": [{"lang": "en", "_content": "If the same information is collected more than once in different periods/parts of a study (e.g., Disposition), EPOCH may be needed to differentiate them. Typically, the trial epoch will be pre-printed on the CRF as the title of the page. See SDTMIG for further information regarding EPOCH."}]}, "MappingInstructions": {"TranslatedText": [{"lang": "en", "_content": "Maps directly to the SDTMIG variable listed in the SDTMIG Target column."}]}, "Definition": {"TranslatedText": [{"lang": "en", "_content": "Name of the trial epoch with which this element of the arm is associated."}]}}, {"OID": "IT.EC.ECYN", "Name": "ECYN", "Core": "O", "DataType": "text", "SubmissionDataType": "Char", "Description": {"TranslatedText": [{"lang": "en", "_content": "Any Study Treatment Taken"}]}, "Question": {}, "CodeListRef": {"CodeListOID": "CL.C66742"}, "Prompt": {"TranslatedText": [{"lang": "en", "_content": "Any Study Treatments"}]}, "CRFCompletionInstructions": {"TranslatedText": [{"lang": "en", "_content": "Indicate if the subject took any study medications. If Yes, include the appropriate details where indicated."}]}, "ImplementationNotes": {"TranslatedText": [{"lang": "en", "_content": "The intent/purpose of collecting this field is to help with data cleaning and monitoring. It provides verification that all other fields on the CRF were deliberately left blank. The ECYN is meant to indicate that the exposure as collected form should be completed or inserted into the case book. ECOCCUR would be used when the actual drug name is pre-printed on the CRF. While these might be equivalent in a single-drug study, there are differences in how they would be used in most trials. Therefore, it does not map into the SDTM variable ECOCCUR; ECOCCUR indicates whether the subject was actually administered treatment/medication. If actual treatment data is available (ECYN =\"Y\"), ECOCCUR may be populated based on whether subject was actually administered treatment/medication."}]}, "MappingInstructions": {"TranslatedText": [{"lang": "en", "_content": "Does not map to an SDTMIG variable. The SDTM annotated CRF indicates that this field is NOT SUBMITTED."}]}, "Definition": {"TranslatedText": [{"lang": "en", "_content": "An indication of whether the subject took the study medication/ treatment."}]}}, {"OID": "IT.EC.ECCAT", "Name": "ECCAT", "Core": "O", "DataType": "text", "SubmissionDataType": "Char", "Description": {"TranslatedText": [{"lang": "en", "_content": "Category of Treatment"}]}, "Question": {}, "Alias": [{"Context": "sdtmigDatasetMappingTarget_0", "Name": "EC.ECCAT"}], "Prompt": {"TranslatedText": [{"lang": "en", "_content": "[Study Treatment Category]; NULL"}]}, "CRFCompletionInstructions": {"TranslatedText": [{"lang": "en", "_content": "Record the study treatment category, if not pre-printed on the CRF."}]}, "ImplementationNotes": {"TranslatedText": [{"lang": "en", "_content": "Sponsor-defined controlled terminology. This would most commonly be either a heading or a pre-printed category value on the CRF, and not a question to which the site would provide an answer. If a question is asked, the response would typically be a sponsor-defined codelist. If the form is laid out as a grid, then words such as \"Category\" can be included as the column heading."}]}, "MappingInstructions": {"TranslatedText": [{"lang": "en", "_content": "Maps directly to the SDTMIG variable listed in the SDTMIG Target column."}]}, "Definition": {"TranslatedText": [{"lang": "en", "_content": "A grouping of topic-variable values based on user-defined characteristics."}]}}, {"OID": "IT.EC.ECSCAT", "Name": "ECSCAT", "Core": "O", "DataType": "text", "SubmissionDataType": "Char", "Description": {"TranslatedText": [{"lang": "en", "_content": "Subcategory of Treatment"}]}, "Question": {}, "Alias": [{"Context": "sdtmigDatasetMappingTarget_0", "Name": "EC.ECSCAT"}], "Prompt": {"TranslatedText": [{"lang": "en", "_content": "[Study Treatment Subcategory]; NULL"}]}, "CRFCompletionInstructions": {"TranslatedText": [{"lang": "en", "_content": "Record the study treatment subcategory, if not pre-printed on the CRF."}]}, "ImplementationNotes": {"TranslatedText": [{"lang": "en", "_content": "Sponsor-defined controlled terminology. This would most commonly be pre-printed on the CRF or screen and pre-populated in the data management system. This is not typically a question to which the site would provide an answer. ECSCAT can only be used if there is an ECCAT and it must be a subcategorization of ECCAT."}]}, "MappingInstructions": {"TranslatedText": [{"lang": "en", "_content": "Maps directly to the SDTMIG variable listed in the SDTMIG Target column."}]}, "Definition": {"TranslatedText": [{"lang": "en", "_content": "A sub-division of the ECCAT values based on user-defined characteristics."}]}}, {"OID": "IT.EC.ECTRT", "Name": "ECTRT", "Core": "R/C", "DataType": "text", "SubmissionDataType": "Char", "Description": {"TranslatedText": [{"lang": "en", "_content": "Treatment"}]}, "Question": {}, "Alias": [{"Context": "sdtmigDatasetMappingTarget_0", "Name": "EC.ECTRT"}], "Prompt": {"TranslatedText": [{"lang": "en", "_content": "[Study Treatment/Investigational Product Name]"}]}, "CRFCompletionInstructions": {"TranslatedText": [{"lang": "en", "_content": "Record the name of study treatment."}]}, "ImplementationNotes": {"TranslatedText": [{"lang": "en", "_content": "ECTRT is the name of the intervention or treatment known to the subject and/or administrator and it is the SDTM topic variable. It is a required variable in SDTM and must have a value in CDASH or a plan to populate it in the SDTM submission datasets (i.e., collected or populated from other sources). If, in a masked study, treatment is collected and known as tablet A to the subject or administrator, then ECTRT=\"TABLET A\". If, in a masked study, the treatment is not known by a synonym and the data are to be exchanged between sponsors, partners, and/or regulatory agency(s), then assign ECTRT the value of \"MASKED\"."}]}, "MappingInstructions": {"TranslatedText": [{"lang": "en", "_content": "Maps directly to the SDTMIG variable listed in the SDTMIG Target column."}]}, "Definition": {"TranslatedText": [{"lang": "en", "_content": "Name of the intervention or treatment known to the subject and/or administrator."}]}}, {"OID": "IT.EC.ECPRESP", "Name": "ECPRESP", "Core": "O", "DataType": "text", "SubmissionDataType": "Char", "Description": {"TranslatedText": [{"lang": "en", "_content": "Exposure as Collected Pre-Specified"}]}, "CodeListRef": {"CodeListOID": "CL.C66742"}, "Alias": [{"Context": "sdtmigDatasetMappingTarget_0", "Name": "EC.ECPRESP"}], "ImplementationNotes": {"TranslatedText": [{"lang": "en", "_content": "For pre-specified interventions, a hidden field on a CRF defaulted to \"Y\", or added during the SDTM dataset creation. If a study collects both pre-specified and free-text interventions, the value of ECPRESP should be \"Y\" for all pre-specified interventions and null for interventions reported as free text."}]}, "MappingInstructions": {"TranslatedText": [{"lang": "en", "_content": "Maps directly to the SDTMIG variable listed in the SDTMIG Target column."}]}, "Definition": {"TranslatedText": [{"lang": "en", "_content": "An indication that a specific intervention or a group of interventions is pre-specified on a CRF."}]}}, {"OID": "IT.EC.ECOCCUR", "Name": "ECOCCUR", "Core": "O", "DataType": "text", "SubmissionDataType": "Char", "Description": {"TranslatedText": [{"lang": "en", "_content": "Exposure as Collected Occurrence"}]}, "Question": {}, "CodeListRef": {"CodeListOID": "CL.C66742"}, "Alias": [{"Context": "sdtmigDatasetMappingTarget_0", "Name": "EC.ECOCCUR"}], "Prompt": {"TranslatedText": [{"lang": "en", "_content": "[Study Medication/Treatment]"}]}, "CRFCompletionInstructions": {"TranslatedText": [{"lang": "en", "_content": "Indicate if the subject took study treatment. If Yes, include the appropriate details where indicated."}]}, "ImplementationNotes": {"TranslatedText": [{"lang": "en", "_content": "ECOCCUR is used to indicate whether the subject was actually administered treatment/medication. ECOCCUR should not be used to indicate that the question was not asked or answered."}]}, "MappingInstructions": {"TranslatedText": [{"lang": "en", "_content": "Maps directly to the SDTMIG variable listed in the SDTMIG Target column. Not applicable when ECMOOD is \"Scheduled\"."}]}, "Definition": {"TranslatedText": [{"lang": "en", "_content": "An indication whether the study treatment was administered when information about the occurrence of a specific intervention was solicited."}]}}, {"OID": "IT.EC.ECREASOC", "Name": "ECREASOC", "Core": "O", "DataType": "text", "SubmissionDataType": "Char", "Description": {"TranslatedText": [{"lang": "en", "_content": "Exposure Reason for Occur Value"}]}, "Question": {}, "Alias": [{"Context": "sdtmigDatasetMappingTarget_0", "Name": "SUPPQUAL.QVAL"}], "Prompt": {"TranslatedText": [{"lang": "en", "_content": "Reason (Not) Taken"}]}, "CRFCompletionInstructions": {"TranslatedText": [{"lang": "en", "_content": "Indicate why the study treatment was or wasnot taken."}]}, "ImplementationNotes": {"TranslatedText": [{"lang": "en", "_content": "The reason the study treatment was or was not taken may be chosen from a sponsor-defined codelist (e.g., SUBJECT MISTAKE, SUBJECT REFUSED) or entered as free text. When --REASOC is used, --OCCUR must also be populated in the SDTM dataset with a value of \"Y\" or \"N\"."}]}, "MappingInstructions": {"TranslatedText": [{"lang": "en", "_content": "This information could be submitted in a SUPPEC dataset as the value of SUPPEC.QVAL where SUPPEC.QNAM=\"ECREASOC\" and SUPPEC.QLABEL =\"Reason for Occur Value\". Refer to the current SDTM and SDTMIG for instructions on placement of non-standard variables (NSVs) in SDTM domains."}]}, "Definition": {"TranslatedText": [{"lang": "en", "_content": "An explanation for why a scheduled study treatment administration did or did not occur."}]}}, {"OID": "IT.EC.ECMOOD", "Name": "ECMOOD", "Core": "O", "DataType": "text", "SubmissionDataType": "Char", "Description": {"TranslatedText": [{"lang": "en", "_content": "Exposure as Collected Mood"}]}, "Question": {}, "CodeListRef": {"CodeListOID": "CL.C125923"}, "Alias": [{"Context": "sdtmigDatasetMappingTarget_0", "Name": "EC.ECMOOD"}], "Prompt": {"TranslatedText": [{"lang": "en", "_content": "Scheduled/Performed"}]}, "CRFCompletionInstructions": {"TranslatedText": [{"lang": "en", "_content": "Indicate if this record has happened or is intended to happen."}]}, "ImplementationNotes": {"TranslatedText": [{"lang": "en", "_content": "\"SCHEDULED\" is for collected subject-level intended dose records. \"PERFORMED\" is for collected subject-level actual dose records. \"Planned\" or \"Scheduled\" can be pre-printed as the CRF name or section header, as applicable. If collecting both the scheduled and performed dosing in the same horizontal record, the sponsor may choose to append \"_SCHEDULED\" to the ECDOSE/ECDOSTXT variable name to delineate the scheduled dose from the performed dose. The performed dose would just be collected with ECDOSE/ECDOSTXT and ECDOSU."}]}, "MappingInstructions": {"TranslatedText": [{"lang": "en", "_content": "Maps directly to the SDTMIG variable listed in the SDTMIG Target column. When implemented, ECMOOD must be populated for all records."}]}, "Definition": {"TranslatedText": [{"lang": "en", "_content": "Mode or condition of the record specifying whether the intervention (activity) is intended to happen or has happened."}]}}, {"OID": "IT.EC.ECREFID", "Name": "ECREFID", "Core": "O", "DataType": "text", "SubmissionDataType": "Char", "Description": {"TranslatedText": [{"lang": "en", "_content": "Exposure as Collected Reference ID"}]}, "Question": {}, "Alias": [{"Context": "sdtmigDatasetMappingTarget_0", "Name": "EC.ECREFID"}], "Prompt": {"TranslatedText": [{"lang": "en", "_content": "[Study Treatment] Label Identifier"}]}, "CRFCompletionInstructions": {"TranslatedText": [{"lang": "en", "_content": "Record treatment label identifier."}]}, "ImplementationNotes": {"TranslatedText": [{"lang": "en", "_content": "This packaging identifier (e.g., kit number, bottle label, vial identifier) may be collected in different ways (e.g., affixing label onto CRF, scanning a bar code). For some study dosing regimens that require greater granularity for treatment identifiers, sponsors may need to use additional variables."}]}, "MappingInstructions": {"TranslatedText": [{"lang": "en", "_content": "Maps directly to the SDTMIG variable listed in the SDTMIG Target column."}]}, "Definition": {"TranslatedText": [{"lang": "en", "_content": "An internal or external identifier (e.g., kit number, bottle label, vial identifier)."}]}}, {"OID": "IT.EC