{"FileOID": "ODM.SDTMIGv3.4.2021-11-29", "Granularity": "Metadata", "AsOfDateTime": "2021-11-29T00:00:00+00:00", "CreationDateTime": "2026-05-18T01:47:20.327916+00:00", "ODMVersion": "1.3.2", "FileType": "Snapshot", "Originator": "CDISC LIBRARY", "SourceSystem": "cdisc_library_api", "SourceSystemVersion": "1.0", "LibraryXMLVersion": "1.0.0", "Context": "Other", "Study": [{"OID": "STUDY.SDTMIG.v3.4", "GlobalVariables": {"StudyName": {"_content": "SDTMIG v3.4"}, "StudyDescription": {"_content": "Study Data Tabulation Model Implementation Guide: Human Clinical Trials"}, "ProtocolName": {"_content": "CDISC Standard Publication"}}, "MetaDataVersion": {"OID": "MDV.SDTMIG.v3.4", "Name": "SDTMIG v3.4 Metadata", "DefineVersion": "2.1.0", "DatePublished": "2021-11-29", "Standards": {"Standard": [{"OID": "STD.SDTMIGv3.4", "Name": "SDTMIG v3.4", "Version": "3-4", "Type": "IG", "Status": "Final"}]}, "ItemGroupDef": [{"OID": "IGD.AG", "Name": "AG", "Domain": "AG", "Repeating": "No", "Purpose": "Tabulation", "Structure": "One record per recorded intervention occurrence per subject", "Description": {"TranslatedText": [{"lang": "en", "_content": "Procedure Agents"}]}, "ItemRef": [{"ItemOID": "IT.AG.STUDYID", "OrderNumber": 1, "Mandatory": "No", "Role": "Identifier"}, {"ItemOID": "IT.AG.DOMAIN", "OrderNumber": 2, "Mandatory": "No", "Role": "Identifier"}, {"ItemOID": "IT.AG.USUBJID", "OrderNumber": 3, "Mandatory": "No", "Role": "Identifier"}, {"ItemOID": "IT.AG.AGSEQ", "OrderNumber": 4, "Mandatory": "No", "Role": "Identifier"}, {"ItemOID": "IT.AG.AGGRPID", "OrderNumber": 5, "Mandatory": "No", "Role": "Identifier"}, {"ItemOID": "IT.AG.AGSPID", "OrderNumber": 6, "Mandatory": "No", "Role": "Identifier"}, {"ItemOID": "IT.AG.AGLNKID", "OrderNumber": 7, "Mandatory": "No", "Role": "Identifier"}, {"ItemOID": "IT.AG.AGLNKGRP", "OrderNumber": 8, "Mandatory": "No", "Role": "Identifier"}, {"ItemOID": "IT.AG.AGTRT", "OrderNumber": 9, "Mandatory": "No", "Role": "Topic"}, {"ItemOID": "IT.AG.AGMODIFY", "OrderNumber": 10, "Mandatory": "No", "Role": "Synonym Qualifier"}, {"ItemOID": "IT.AG.AGDECOD", "OrderNumber": 11, "Mandatory": "No", "Role": "Synonym Qualifier"}, {"ItemOID": "IT.AG.AGCAT", "OrderNumber": 12, "Mandatory": "No", "Role": "Grouping Qualifier"}, {"ItemOID": "IT.AG.AGSCAT", "OrderNumber": 13, "Mandatory": "No", "Role": "Grouping Qualifier"}, {"ItemOID": "IT.AG.AGPRESP", "OrderNumber": 14, "Mandatory": "No", "Role": "Variable Qualifier"}, {"ItemOID": "IT.AG.AGOCCUR", "OrderNumber": 15, "Mandatory": "No", "Role": "Record Qualifier"}, {"ItemOID": "IT.AG.AGSTAT", "OrderNumber": 16, "Mandatory": "No", "Role": "Record Qualifier"}, {"ItemOID": "IT.AG.AGREASND", "OrderNumber": 17, "Mandatory": "No", "Role": "Record Qualifier"}, {"ItemOID": "IT.AG.AGCLAS", "OrderNumber": 18, "Mandatory": "No", "Role": "Variable Qualifier"}, {"ItemOID": "IT.AG.AGCLASCD", "OrderNumber": 19, "Mandatory": "No", "Role": "Variable Qualifier"}, {"ItemOID": "IT.AG.AGDOSE", "OrderNumber": 20, "Mandatory": "No", "Role": "Record Qualifier"}, {"ItemOID": "IT.AG.AGDOSTXT", "OrderNumber": 21, "Mandatory": "No", "Role": "Record Qualifier"}, {"ItemOID": "IT.AG.AGDOSU", "OrderNumber": 22, "Mandatory": "No", "Role": "Variable Qualifier"}, {"ItemOID": "IT.AG.AGDOSFRM", "OrderNumber": 23, "Mandatory": "No", "Role": "Variable Qualifier"}, {"ItemOID": "IT.AG.AGDOSFRQ", "OrderNumber": 24, "Mandatory": "No", "Role": "Record Qualifier"}, {"ItemOID": "IT.AG.AGROUTE", "OrderNumber": 25, "Mandatory": "No", "Role": "Variable Qualifier"}, {"ItemOID": "IT.AG.VISITNUM", "OrderNumber": 26, "Mandatory": "No", "Role": "Timing"}, {"ItemOID": "IT.AG.VISIT", "OrderNumber": 27, "Mandatory": "No", "Role": "Timing"}, {"ItemOID": "IT.AG.VISITDY", "OrderNumber": 28, "Mandatory": "No", "Role": "Timing"}, {"ItemOID": "IT.AG.TAETORD", "OrderNumber": 29, "Mandatory": "No", "Role": "Timing"}, {"ItemOID": "IT.AG.EPOCH", "OrderNumber": 30, "Mandatory": "No", "Role": "Timing"}, {"ItemOID": "IT.AG.AGSTDTC", "OrderNumber": 31, "Mandatory": "No", "Role": "Timing"}, {"ItemOID": "IT.AG.AGENDTC", "OrderNumber": 32, "Mandatory": "No", "Role": "Timing"}, {"ItemOID": "IT.AG.AGSTDY", "OrderNumber": 33, "Mandatory": "No", "Role": "Timing"}, {"ItemOID": "IT.AG.AGENDY", "OrderNumber": 34, "Mandatory": "No", "Role": "Timing"}, {"ItemOID": "IT.AG.AGDUR", "OrderNumber": 35, "Mandatory": "No", "Role": "Timing"}, {"ItemOID": "IT.AG.AGSTRF", "OrderNumber": 36, "Mandatory": "No", "Role": "Timing"}, {"ItemOID": "IT.AG.AGENRF", "OrderNumber": 37, "Mandatory": "No", "Role": "Timing"}, {"ItemOID": "IT.AG.AGSTRTPT", "OrderNumber": 38, "Mandatory": "No", "Role": "Timing"}, {"ItemOID": "IT.AG.AGSTTPT", "OrderNumber": 39, "Mandatory": "No", "Role": "Timing"}, {"ItemOID": "IT.AG.AGENRTPT", "OrderNumber": 40, "Mandatory": "No", "Role": "Timing"}, {"ItemOID": "IT.AG.AGENTPT", "OrderNumber": 41, "Mandatory": "No", "Role": "Timing"}], "Class": {"Name": "INTERVENTIONS"}}, {"OID": "IGD.CM", "Name": "CM", "Domain": "CM", "Repeating": "No", "Purpose": "Tabulation", "Structure": "One record per recorded intervention occurrence or constant-dosing interval per subject", "Description": {"TranslatedText": [{"lang": "en", "_content": "Concomitant/Prior Medications"}]}, "ItemRef": [{"ItemOID": "IT.CM.STUDYID", "OrderNumber": 1, "Mandatory": "No", "Role": "Identifier"}, {"ItemOID": "IT.CM.DOMAIN", "OrderNumber": 2, "Mandatory": "No", "Role": "Identifier"}, {"ItemOID": "IT.CM.USUBJID", "OrderNumber": 3, "Mandatory": "No", "Role": "Identifier"}, {"ItemOID": "IT.CM.CMSEQ", "OrderNumber": 4, "Mandatory": "No", "Role": "Identifier"}, {"ItemOID": "IT.CM.CMGRPID", "OrderNumber": 5, "Mandatory": "No", "Role": "Identifier"}, {"ItemOID": "IT.CM.CMSPID", "OrderNumber": 6, "Mandatory": "No", "Role": "Identifier"}, {"ItemOID": "IT.CM.CMTRT", "OrderNumber": 7, "Mandatory": "No", "Role": "Topic"}, {"ItemOID": "IT.CM.CMMODIFY", "OrderNumber": 8, "Mandatory": "No", "Role": "Synonym Qualifier"}, {"ItemOID": "IT.CM.CMDECOD", "OrderNumber": 9, "Mandatory": "No", "Role": "Synonym Qualifier"}, {"ItemOID": "IT.CM.CMCAT", "OrderNumber": 10, "Mandatory": "No", "Role": "Grouping Qualifier"}, {"ItemOID": "IT.CM.CMSCAT", "OrderNumber": 11, "Mandatory": "No", "Role": "Grouping Qualifier"}, {"ItemOID": "IT.CM.CMPRESP", "OrderNumber": 12, "Mandatory": "No", "Role": "Variable Qualifier"}, {"ItemOID": "IT.CM.CMOCCUR", "OrderNumber": 13, "Mandatory": "No", "Role": "Record Qualifier"}, {"ItemOID": "IT.CM.CMSTAT", "OrderNumber": 14, "Mandatory": "No", "Role": "Record Qualifier"}, {"ItemOID": "IT.CM.CMREASND", "OrderNumber": 15, "Mandatory": "No", "Role": "Record Qualifier"}, {"ItemOID": "IT.CM.CMINDC", "OrderNumber": 16, "Mandatory": "No", "Role": "Record Qualifier"}, {"ItemOID": "IT.CM.CMCLAS", "OrderNumber": 17, "Mandatory": "No", "Role": "Variable Qualifier"}, {"ItemOID": "IT.CM.CMCLASCD", "OrderNumber": 18, "Mandatory": "No", "Role": "Variable Qualifier"}, {"ItemOID": "IT.CM.CMDOSE", "OrderNumber": 19, "Mandatory": "No", "Role": "Record Qualifier"}, {"ItemOID": "IT.CM.CMDOSTXT", "OrderNumber": 20, "Mandatory": "No", "Role": "Record Qualifier"}, {"ItemOID": "IT.CM.CMDOSU", "OrderNumber": 21, "Mandatory": "No", "Role": "Variable Qualifier"}, {"ItemOID": "IT.CM.CMDOSFRM", "OrderNumber": 22, "Mandatory": "No", "Role": "Variable Qualifier"}, {"ItemOID": "IT.CM.CMDOSFRQ", "OrderNumber": 23, "Mandatory": "No", "Role": "Record Qualifier"}, {"ItemOID": "IT.CM.CMDOSTOT", "OrderNumber": 24, "Mandatory": "No", "Role": "Record Qualifier"}, {"ItemOID": "IT.CM.CMDOSRGM", "OrderNumber": 25, "Mandatory": "No", "Role": "Record Qualifier"}, {"ItemOID": "IT.CM.CMROUTE", "OrderNumber": 26, "Mandatory": "No", "Role": "Variable Qualifier"}, {"ItemOID": "IT.CM.CMADJ", "OrderNumber": 27, "Mandatory": "No", "Role": "Record Qualifier"}, {"ItemOID": "IT.CM.CMRSDISC", "OrderNumber": 28, "Mandatory": "No", "Role": "Record Qualifier"}, {"ItemOID": "IT.CM.TAETORD", "OrderNumber": 29, "Mandatory": "No", "Role": "Timing"}, {"ItemOID": "IT.CM.EPOCH", "OrderNumber": 30, "Mandatory": "No", "Role": "Timing"}, {"ItemOID": "IT.CM.CMSTDTC", "OrderNumber": 31, "Mandatory": "No", "Role": "Timing"}, {"ItemOID": "IT.CM.CMENDTC", "OrderNumber": 32, "Mandatory": "No", "Role": "Timing"}, {"ItemOID": "IT.CM.CMSTDY", "OrderNumber": 33, "Mandatory": "No", "Role": "Timing"}, {"ItemOID": "IT.CM.CMENDY", "OrderNumber": 34, "Mandatory": "No", "Role": "Timing"}, {"ItemOID": "IT.CM.CMDUR", "OrderNumber": 35, "Mandatory": "No", "Role": "Timing"}, {"ItemOID": "IT.CM.CMSTRF", "OrderNumber": 36, "Mandatory": "No", "Role": "Timing"}, {"ItemOID": "IT.CM.CMENRF", "OrderNumber": 37, "Mandatory": "No", "Role": "Timing"}, {"ItemOID": "IT.CM.CMSTRTPT", "OrderNumber": 38, "Mandatory": "No", "Role": "Timing"}, {"ItemOID": "IT.CM.CMSTTPT", "OrderNumber": 39, "Mandatory": "No", "Role": "Timing"}, {"ItemOID": "IT.CM.CMENRTPT", "OrderNumber": 40, "Mandatory": "No", "Role": "Timing"}, {"ItemOID": "IT.CM.CMENTPT", "OrderNumber": 41, "Mandatory": "No", "Role": "Timing"}], "Class": {"Name": "INTERVENTIONS"}}, {"OID": "IGD.EC", "Name": "EC", "Domain": "EC", "Repeating": "No", "Purpose": "Tabulation", "Structure": "One record per protocol-specified study treatment, collected-dosing interval, per subject, per mood", "Description": {"TranslatedText": [{"lang": "en", "_content": "Exposure as Collected"}]}, "ItemRef": [{"ItemOID": "IT.EC.STUDYID", "OrderNumber": 1, "Mandatory": "No", "Role": "Identifier"}, {"ItemOID": "IT.EC.DOMAIN", "OrderNumber": 2, "Mandatory": "No", "Role": "Identifier"}, {"ItemOID": "IT.EC.USUBJID", "OrderNumber": 3, "Mandatory": "No", "Role": "Identifier"}, {"ItemOID": "IT.EC.ECSEQ", "OrderNumber": 4, "Mandatory": "No", "Role": "Identifier"}, {"ItemOID": "IT.EC.ECGRPID", "OrderNumber": 5, "Mandatory": "No", "Role": "Identifier"}, {"ItemOID": "IT.EC.ECREFID", "OrderNumber": 6, "Mandatory": "No", "Role": "Identifier"}, {"ItemOID": "IT.EC.ECSPID", "OrderNumber": 7, "Mandatory": "No", "Role": "Identifier"}, {"ItemOID": "IT.EC.ECLNKID", "OrderNumber": 8, "Mandatory": "No", "Role": "Identifier"}, {"ItemOID": "IT.EC.ECLNKGRP", "OrderNumber": 9, "Mandatory": "No", "Role": "Identifier"}, {"ItemOID": "IT.EC.ECTRT", "OrderNumber": 10, "Mandatory": "No", "Role": "Topic"}, {"ItemOID": "IT.EC.ECMOOD", "OrderNumber": 11, "Mandatory": "No", "Role": "Record Qualifier"}, {"ItemOID": "IT.EC.ECCAT", "OrderNumber": 12, "Mandatory": "No", "Role": "Grouping Qualifier"}, {"ItemOID": "IT.EC.ECSCAT", "OrderNumber": 13, "Mandatory": "No", "Role": "Grouping Qualifier"}, {"ItemOID": "IT.EC.ECPRESP", "OrderNumber": 14, "Mandatory": "No", "Role": "Variable Qualifier"}, {"ItemOID": "IT.EC.ECOCCUR", "OrderNumber": 15, "Mandatory": "No", "Role": "Record Qualifier"}, {"ItemOID": "IT.EC.ECREASOC", "OrderNumber": 16, "Mandatory": "No", "Role": "Record Qualifier"}, {"ItemOID": "IT.EC.ECDOSE", "OrderNumber": 17, "Mandatory": "No", "Role": "Record Qualifier"}, {"ItemOID": "IT.EC.ECDOSTXT", "OrderNumber": 18, "Mandatory": "No", "Role": "Record Qualifier"}, {"ItemOID": "IT.EC.ECDOSU", "OrderNumber": 19, "Mandatory": "No", "Role": "Variable Qualifier"}, {"ItemOID": "IT.EC.ECDOSFRM", "OrderNumber": 20, "Mandatory": "No", "Role": "Variable Qualifier"}, {"ItemOID": "IT.EC.ECDOSFRQ", "OrderNumber": 21, "Mandatory": "No", "Role": "Record Qualifier"}, {"ItemOID": "IT.EC.ECDOSTOT", "OrderNumber": 22, "Mandatory": "No", "Role": "Record Qualifier"}, {"ItemOID": "IT.EC.ECDOSRGM", "OrderNumber": 23, "Mandatory": "No", "Role": "Record Qualifier"}, {"ItemOID": "IT.EC.ECROUTE", "OrderNumber": 24, "Mandatory": "No", "Role": "Variable Qualifier"}, {"ItemOID": "IT.EC.ECLOT", "OrderNumber": 25, "Mandatory": "No", "Role": "Record Qualifier"}, {"ItemOID": "IT.EC.ECLOC", "OrderNumber": 26, "Mandatory": "No", "Role": "Record Qualifier"}, {"ItemOID": "IT.EC.ECLAT", "OrderNumber": 27, "Mandatory": "No", "Role": "Variable Qualifier"}, {"ItemOID": "IT.EC.ECDIR", "OrderNumber": 28, "Mandatory": "No", "Role": "Variable Qualifier"}, {"ItemOID": "IT.EC.ECPORTOT", "OrderNumber": 29, "Mandatory": "No", "Role": "Variable Qualifier"}, {"ItemOID": "IT.EC.ECFAST", "OrderNumber": 30, "Mandatory": "No", "Role": "Record Qualifier"}, {"ItemOID": "IT.EC.ECPSTRG", "OrderNumber": 31, "Mandatory": "No", "Role": "Record Qualifier"}, {"ItemOID": "IT.EC.ECPSTRGU", "OrderNumber": 32, "Mandatory": "No", "Role": "Variable Qualifier"}, {"ItemOID": "IT.EC.ECADJ", "OrderNumber": 33, "Mandatory": "No", "Role": "Record Qualifier"}, {"ItemOID": "IT.EC.TAETORD", "OrderNumber": 34, "Mandatory": "No", "Role": "Timing"}, {"ItemOID": "IT.EC.EPOCH", "OrderNumber": 35, "Mandatory": "No", "Role": "Timing"}, {"ItemOID": "IT.EC.ECSTDTC", "OrderNumber": 36, "Mandatory": "No", "Role": "Timing"}, {"ItemOID": "IT.EC.ECENDTC", "OrderNumber": 37, "Mandatory": "No", "Role": "Timing"}, {"ItemOID": "IT.EC.ECSTDY", "OrderNumber": 38, "Mandatory": "No", "Role": "Timing"}, {"ItemOID": "IT.EC.ECENDY", "OrderNumber": 39, "Mandatory": "No", "Role": "Timing"}, {"ItemOID": "IT.EC.ECDUR", "OrderNumber": 40, "Mandatory": "No", "Role": "Timing"}, {"ItemOID": "IT.EC.ECTPT", "OrderNumber": 41, "Mandatory": "No", "Role": "Timing"}, {"ItemOID": "IT.EC.ECTPTNUM", "OrderNumber": 42, "Mandatory": "No", "Role": "Timing"}, {"ItemOID": "IT.EC.ECELTM", "OrderNumber": 43, "Mandatory": "No", "Role": "Timing"}, {"ItemOID": "IT.EC.ECTPTREF", "OrderNumber": 44, "Mandatory": "No", "Role": "Timing"}, {"ItemOID": "IT.EC.ECRFTDTC", "OrderNumber": 45, "Mandatory": "No", "Role": "Timing"}], "Class": {"Name": "INTERVENTIONS"}}, {"OID": "IGD.EX", "Name": "EX", "Domain": "EX", "Repeating": "No", "Purpose": "Tabulation", "Structure": "One record per protocol-specified study treatment, constant-dosing interval, per subject", "Description": {"TranslatedText": [{"lang": "en", "_content": "Exposure"}]}, "ItemRef": [{"ItemOID": "IT.EX.STUDYID", "OrderNumber": 1, "Mandatory": "No", "Role": "Identifier"}, {"ItemOID": "IT.EX.DOMAIN", "OrderNumber": 2, "Mandatory": "No", "Role": "Identifier"}, {"ItemOID": "IT.EX.USUBJID", "OrderNumber": 3, "Mandatory": "No", "Role": "Identifier"}, {"ItemOID": "IT.EX.EXSEQ", "OrderNumber": 4, "Mandatory": "No", "Role": "Identifier"}, {"ItemOID": "IT.EX.EXGRPID", "OrderNumber": 5, "Mandatory": "No", "Role": "Identifier"}, {"ItemOID": "IT.EX.EXREFID", "OrderNumber": 6, "Mandatory": "No", "Role": "Identifier"}, {"ItemOID": "IT.EX.EXSPID", "OrderNumber": 7, "Mandatory": "No", "Role": "Identifier"}, {"ItemOID": "IT.EX.EXLNKID", "OrderNumber": 8, "Mandatory": "No", "Role": "Identifier"}, {"ItemOID": "IT.EX.EXLNKGRP", "OrderNumber": 9, "Mandatory": "No", "Role": "Identifier"}, {"ItemOID": "IT.EX.EXTRT", "OrderNumber": 10, "Mandatory": "No", "Role": "Topic"}, {"ItemOID": "IT.EX.EXCAT", "OrderNumber": 11, "Mandatory": "No", "Role": "Grouping Qualifier"}, {"ItemOID": "IT.EX.EXSCAT", "OrderNumber": 12, "Mandatory": "No", "Role": "Grouping Qualifier"}, {"ItemOID": "IT.EX.EXDOSE", "OrderNumber": 13, "Mandatory": "No", "Role": "Record Qualifier"}, {"ItemOID": "IT.EX.EXDOSTXT", "OrderNumber": 14, "Mandatory": "No", "Role": "Record Qualifier"}, {"ItemOID": "IT.EX.EXDOSU", "OrderNumber": 15, "Mandatory": "No", "Role": "Variable Qualifier"}, {"ItemOID": "IT.EX.EXDOSFRM", "OrderNumber": 16, "Mandatory": "No", "Role": "Variable Qualifier"}, {"ItemOID": "IT.EX.EXDOSFRQ", "OrderNumber": 17, "Mandatory": "No", "Role": "Record Qualifier"}, {"ItemOID": "IT.EX.EXDOSRGM", "OrderNumber": 18, "Mandatory": "No", "Role": "Record Qualifier"}, {"ItemOID": "IT.EX.EXROUTE", "OrderNumber": 19, "Mandatory": "No", "Role": "Variable Qualifier"}, {"ItemOID": "IT.EX.EXLOT", "OrderNumber": 20, "Mandatory": "No", "Role": "Record Qualifier"}, {"ItemOID": "IT.EX.EXLOC", "OrderNumber": 21, "Mandatory": "No", "Role": "Record Qualifier"}, {"ItemOID": "IT.EX.EXLAT", "OrderNumber": 22, "Mandatory": "No", "Role": "Variable Qualifier"}, {"ItemOID": "IT.EX.EXDIR", "OrderNumber": 23, "Mandatory": "No", "Role": "Variable Qualifier"}, {"ItemOID": "IT.EX.EXFAST", "OrderNumber": 24, "Mandatory": "No", "Role": "Record Qualifier"}, {"ItemOID": "IT.EX.EXADJ", "OrderNumber": 25, "Mandatory": "No", "Role": "Record Qualifier"}, {"ItemOID": "IT.EX.TAETORD", "OrderNumber": 26, "Mandatory": "No", "Role": "Timing"}, {"ItemOID": "IT.EX.EPOCH", "OrderNumber": 27, "Mandatory": "No", "Role": "Timing"}, {"ItemOID": "IT.EX.EXSTDTC", "OrderNumber": 28, "Mandatory": "No", "Role": "Timing"}, {"ItemOID": "IT.EX.EXENDTC", "OrderNumber": 29, "Mandatory": "No", "Role": "Timing"}, {"ItemOID": "IT.EX.EXSTDY", "OrderNumber": 30, "Mandatory": "No", "Role": "Timing"}, {"ItemOID": "IT.EX.EXENDY", "OrderNumber": 31, "Mandatory": "No", "Role": "Timing"}, {"ItemOID": "IT.EX.EXDUR", "OrderNumber": 32, "Mandatory": "No", "Role": "Timing"}, {"ItemOID": "IT.EX.EXTPT", "OrderNumber": 33, "Mandatory": "No", "Role": "Timing"}, {"ItemOID": "IT.EX.EXTPTNUM", "OrderNumber": 34, "Mandatory": "No", "Role": "Timing"}, {"ItemOID": "IT.EX.EXELTM", "OrderNumber": 35, "Mandatory": "No", "Role": "Timing"}, {"ItemOID": "IT.EX.EXTPTREF", "OrderNumber": 36, "Mandatory": "No", "Role": "Timing"}, {"ItemOID": "IT.EX.EXRFTDTC", "OrderNumber": 37, "Mandatory": "No", "Role": "Timing"}], "Class": {"Name": "INTERVENTIONS"}}, {"OID": "IGD.ML", "Name": "ML", "Domain": "ML", "Repeating": "No", "Purpose": "Tabulation", "Structure": "One record per food product occurrence or constant intake interval per subject", "Description": {"TranslatedText": [{"lang": "en", "_content": "Meal Data"}]}, "ItemRef": [{"ItemOID": "IT.ML.STUDYID", "OrderNumber": 1, "Mandatory": "No", "Role": "Identifier"}, {"ItemOID": "IT.ML.DOMAIN", "OrderNumber": 2, "Mandatory": "No", "Role": "Identifier"}, {"ItemOID": "IT.ML.USUBJID", "OrderNumber": 3, "Mandatory": "No", "Role": "Identifier"}, {"ItemOID": "IT.ML.MLSEQ", "OrderNumber": 4, "Mandatory": "No", "Role": "Identifier"}, {"ItemOID": "IT.ML.MLGRPID", "OrderNumber": 5, "Mandatory": "No", "Role": "Identifier"}, {"ItemOID": "IT.ML.MLSPID", "OrderNumber": 6, "Mandatory": "No", "Role": "Identifier"}, {"ItemOID": "IT.ML.MLTRT", "OrderNumber": 7, "Mandatory": "No", "Role": "Topic"}, {"ItemOID": "IT.ML.MLCAT", "OrderNumber": 8, "Mandatory": "No", "Role": "Grouping Qualifier"}, {"ItemOID": "IT.ML.MLSCAT", "OrderNumber": 9, "Mandatory": "No", "Role": "Grouping Qualifier"}, {"ItemOID": "IT.ML.MLPRESP", "OrderNumber": 10, "Mandatory": "No", "Role": "Variable Qualifier"}, {"ItemOID": "IT.ML.MLOCCUR", "OrderNumber": 11, "Mandatory": "No", "Role": "Record Qualifier"}, {"ItemOID": "IT.ML.MLSTAT", "OrderNumber": 12, "Mandatory": "No", "Role": "Record Qualifier"}, {"ItemOID": "IT.ML.MLREASND", "OrderNumber": 13, "Mandatory": "No", "Role": "Record Qualifier"}, {"ItemOID": "IT.ML.MLDOSE", "OrderNumber": 14, "Mandatory": "No", "Role": "Record Qualifier"}, {"ItemOID": "IT.ML.MLDOSTXT", "OrderNumber": 15, "Mandatory": "No", "Role": "Record Qualifier"}, {"ItemOID": "IT.ML.MLDOSU", "OrderNumber": 16, "Mandatory": "No", "Role": "Variable Qualifier"}, {"ItemOID": "IT.ML.MLDOSFRM", "OrderNumber": 17, "Mandatory": "No", "Role": "Variable Qualifier"}, {"ItemOID": "IT.ML.VISITNUM", "OrderNumber": 18, "Mandatory": "No", "Role": "Timing"}, {"ItemOID": "IT.ML.VISIT", "OrderNumber": 19, "Mandatory": "No", "Role": "Timing"}, {"ItemOID": "IT.ML.VISITDY", "OrderNumber": 20, "Mandatory": "No", "Role": "Timing"}, {"ItemOID": "IT.ML.TAETORD", "OrderNumber": 21, "Mandatory": "No", "Role": "Timing"}, {"ItemOID": "IT.ML.EPOCH", "OrderNumber": 22, "Mandatory": "No", "Role": "Timing"}, {"ItemOID": "IT.ML.MLDTC", "OrderNumber": 23, "Mandatory": "No", "Role": "Timing"}, {"ItemOID": "IT.ML.MLSTDTC", "OrderNumber": 24, "Mandatory": "No", "Role": "Timing"}, {"ItemOID": "IT.ML.MLENDTC", "OrderNumber": 25, "Mandatory": "No", "Role": "Timing"}, {"ItemOID": "IT.ML.MLDY", "OrderNumber": 26, "Mandatory": "No", "Role": "Timing"}, {"ItemOID": "IT.ML.MLSTDY", "OrderNumber": 27, "Mandatory": "No", "Role": "Timing"}, {"ItemOID": "IT.ML.MLENDY", "OrderNumber": 28, "Mandatory": "No", "Role": "Timing"}, {"ItemOID": "IT.ML.MLDUR", "OrderNumber": 29, "Mandatory": "No", "Role": "Timing"}, {"ItemOID": "IT.ML.MLTPT", "OrderNumber": 30, "Mandatory": "No", "Role": "Timing"}, {"ItemOID": "IT.ML.MLTPTNUM", "OrderNumber": 31, "Mandatory": "No", "Role": "Timing"}, {"ItemOID": "IT.ML.MLELTM", "OrderNumber": 32, "Mandatory": "No", "Role": "Timing"}, {"ItemOID": "IT.ML.MLTPTREF", "OrderNumber": 33, "Mandatory": "No", "Role": "Timing"}, {"ItemOID": "IT.ML.MLRFTDTC", "OrderNumber": 34, "Mandatory": "No", "Role": "Timing"}, {"ItemOID": "IT.ML.MIDS", "OrderNumber": 35, "Mandatory": "No", "Role": "Timing"}, {"ItemOID": "IT.ML.RELMIDS", "OrderNumber": 36, "Mandatory": "No", "Role": "Timing"}, {"ItemOID": "IT.ML.MIDSDTC", "OrderNumber": 37, "Mandatory": "No", "Role": "Timing"}], "Class": {"Name": "INTERVENTIONS"}}, {"OID": "IGD.PR", "Name": "PR", "Domain": "PR", "Repeating": "No", "Purpose": "Tabulation", "Structure": "One record per recorded procedure per occurrence per subject", "Description": {"TranslatedText": [{"lang": "en", "_content": "Procedures"}]}, "ItemRef": [{"ItemOID": "IT.PR.STUDYID", "OrderNumber": 1, "Mandatory": "No", "Role": "Identifier"}, {"ItemOID": "IT.PR.DOMAIN", "OrderNumber": 2, "Mandatory": "No", "Role": "Identifier"}, {"ItemOID": "IT.PR.USUBJID", "OrderNumber": 3, "Mandatory": "No", "Role": "Identifier"}, {"ItemOID": "IT.PR.PRSEQ", "OrderNumber": 4, "Mandatory": "No", "Role": "Identifier"}, {"ItemOID": "IT.PR.PRGRPID", "OrderNumber": 5, "Mandatory": "No", "Role": "Identifier"}, {"ItemOID": "IT.PR.PRSPID", "OrderNumber": 6, "Mandatory": "No", "Role": "Identifier"}, {"ItemOID": "IT.PR.PRLNKID", "OrderNumber": 7, "Mandatory": "No", "Role": "Identifier"}, {"ItemOID": "IT.PR.PRLNKGRP", "OrderNumber": 8, "Mandatory": "No", "Role": "Identifier"}, {"ItemOID": "IT.PR.PRTRT", "OrderNumber": 9, "Mandatory": "No", "Role": "Topic"}, {"ItemOID": "IT.PR.PRDECOD", "OrderNumber": 10, "Mandatory": "No", "Role": "Synonym Qualifier"}, {"ItemOID": "IT.PR.PRCAT", "OrderNumber": 11, "Mandatory": "No", "Role": "Grouping Qualifier"}, {"ItemOID": "IT.PR.PRSCAT", "OrderNumber": 12, "Mandatory": "No", "Role": "Grouping Qualifier"}, {"ItemOID": "IT.PR.PRPRESP", "OrderNumber": 13, "Mandatory": "No", "Role": "Variable Qualifier"}, {"ItemOID": "IT.PR.PROCCUR", "OrderNumber": 14, "Mandatory": "No", "Role": "Record Qualifier"}, {"ItemOID": "IT.PR.PRINDC", "OrderNumber": 15, "Mandatory": "No", "Role": "Record Qualifier"}, {"ItemOID": "IT.PR.PRDOSE", "OrderNumber": 16, "Mandatory": "No", "Role": "Record Qualifier"}, {"ItemOID": "IT.PR.PRDOSTXT", "OrderNumber": 17, "Mandatory": "No", "Role": "Record Qualifier"}, {"ItemOID": "IT.PR.PRDOSU", "OrderNumber": 18, "Mandatory": "No", "Role": "Variable Qualifier"}, {"ItemOID": "IT.PR.PRDOSFRM", "OrderNumber": 19, "Mandatory": "No", "Role": "Variable Qualifier"}, {"ItemOID": "IT.PR.PRDOSFRQ", "OrderNumber": 20, "Mandatory": "No", "Role": "Record Qualifier"}, {"ItemOID": "IT.PR.PRDOSRGM", "OrderNumber": 21, "Mandatory": "No", "Role": "Record Qualifier"}, {"ItemOID": "IT.PR.PRROUTE", "OrderNumber": 22, "Mandatory": "No", "Role": "Variable Qualifier"}, {"ItemOID": "IT.PR.PRLOC", "OrderNumber": 23, "Mandatory": "No", "Role": "Record Qualifier"}, {"ItemOID": "IT.PR.PRLAT", "OrderNumber": 24, "Mandatory": "No", "Role": "Variable Qualifier"}, {"ItemOID": "IT.PR.PRDIR", "OrderNumber": 25, "Mandatory": "No", "Role": "Variable Qualifier"}, {"ItemOID": "IT.PR.PRPORTOT", "OrderNumber": 26, "Mandatory": "No", "Role": "Variable Qualifier"}, {"ItemOID": "IT.PR.VISITNUM", "OrderNumber": 27, "Mandatory": "No", "Role": "Timing"}, {"ItemOID": "IT.PR.VISIT", "OrderNumber": 28, "Mandatory": "No", "Role": "Timing"}, {"ItemOID": "IT.PR.VISITDY", "OrderNumber": 29, "Mandatory": "No", "Role": "Timing"}, {"ItemOID": "IT.PR.TAETORD", "OrderNumber": 30, "Mandatory": "No", "Role": "Timing"}, {"ItemOID": "IT.PR.EPOCH", "OrderNumber": 31, "Mandatory": "No", "Role": "Timing"}, {"ItemOID": "IT.PR.PRSTDTC", "OrderNumber": 32, "Mandatory": "No", "Role": "Timing"}, {"ItemOID": "IT.PR.PRENDTC", "OrderNumber": 33, "Mandatory": "No", "Role": "Timing"}, {"ItemOID": "IT.PR.PRSTDY", "OrderNumber": 34, "Mandatory": "No", "Role": "Timing"}, {"ItemOID": "IT.PR.PRENDY", "OrderNumber": 35, "Mandatory": "No", "Role": "Timing"}, {"ItemOID": "IT.PR.PRDUR", "OrderNumber": 36, "Mandatory": "No", "Role": "Timing"}, {"ItemOID": "IT.PR.PRTPT", "OrderNumber": 37, "Mandatory": "No", "Role": "Timing"}, {"ItemOID": "IT.PR.PRTPTNUM", "OrderNumber": 38, "Mandatory": "No", "Role": "Timing"}, {"ItemOID": "IT.PR.PRELTM", "OrderNumber": 39, "Mandatory": "No", "Role": "Timing"}, {"ItemOID": "IT.PR.PRTPTREF", "OrderNumber": 40, "Mandatory": "No", "Role": "Timing"}, {"ItemOID": "IT.PR.PRRFTDTC", "OrderNumber": 41, "Mandatory": "No", "Role": "Timing"}, {"ItemOID": "IT.PR.PRSTRTPT", "OrderNumber": 42, "Mandatory": "No", "Role": "Timing"}, {"ItemOID": "IT.PR.PRSTTPT", "OrderNumber": 43, "Mandatory": "No", "Role": "Timing"}, {"ItemOID": "IT.PR.PRENRTPT", "OrderNumber": 44, "Mandatory": "No", "Role": "Timing"}, {"ItemOID": "IT.PR.PRENTPT", "OrderNumber": 45, "Mandatory": "No", "Role": "Timing"}], "Class": {"Name": "INTERVENTIONS"}}, {"OID": "IGD.SU", "Name": "SU", "Domain": "SU", "Repeating": "No", "Purpose": "Tabulation", "Structure": "One record per substance type per reported occurrence per subject", "Description": {"TranslatedText": [{"lang": "en", "_content": "Substance Use"}]}, "ItemRef": [{"ItemOID": "IT.SU.STUDYID", "OrderNumber": 1, "Mandatory": "No", "Role": "Identifier"}, {"ItemOID": "IT.SU.DOMAIN", "OrderNumber": 2, "Mandatory": "No", "Role": "Identifier"}, {"ItemOID": "IT.SU.USUBJID", "OrderNumber": 3, "Mandatory": "No", "Role": "Identifier"}, {"ItemOID": "IT.SU.SUSEQ", "OrderNumber": 4, "Mandatory": "No", "Role": "Identifier"}, {"ItemOID": "IT.SU.SUGRPID", "OrderNumber": 5, "Mandatory": "No", "Role": "Identifier"}, {"ItemOID": "IT.SU.SUSPID", "OrderNumber": 6, "Mandatory": "No", "Role": "Identifier"}, {"ItemOID": "IT.SU.SUTRT", "OrderNumber": 7, "Mandatory": "No", "Role": "Topic"}, {"ItemOID": "IT.SU.SUMODIFY", "OrderNumber": 8, "Mandatory": "No", "Role": "Synonym Qualifier"}, {"ItemOID": "IT.SU.SUDECOD", "OrderNumber": 9, "Mandatory": "No", "Role": "Synonym Qualifier"}, {"ItemOID": "IT.SU.SUCAT", "OrderNumber": 10, "Mandatory": "No", "Role": "Grouping Qualifier"}, {"ItemOID": "IT.SU.SUSCAT", "OrderNumber": 11, "Mandatory": "No", "Role": "Grouping Qualifier"}, {"ItemOID": "IT.SU.SUPRESP", "OrderNumber": 12, "Mandatory": "No", "Role": "Variable Qualifier"}, {"ItemOID": "IT.SU.SUOCCUR", "OrderNumber": 13, "Mandatory": "No", "Role": "Record Qualifier"}, {"ItemOID": "IT.SU.SUSTAT", "OrderNumber": 14, "Mandatory": "No", "Role": "Record Qualifier"}, {"ItemOID": "IT.SU.SUREASND", "OrderNumber": 15, "Mandatory": "No", "Role": "Record Qualifier"}, {"ItemOID": "IT.SU.SUCLAS", "OrderNumber": 16, "Mandatory": "No", "Role": "Variable Qualifier"}, {"ItemOID": "IT.SU.SUCLASCD", "OrderNumber": 17, "Mandatory": "No", "Role": "Variable Qualifier"}, {"ItemOID": "IT.SU.SUDOSE", "OrderNumber": 18, "Mandatory": "No", "Role": "Record Qualifier"}, {"ItemOID": "IT.SU.SUDOSTXT", "OrderNumber": 19, "Mandatory": "No", "Role": "Record Qualifier"}, {"ItemOID": "IT.SU.SUDOSU", "OrderNumber": 20, "Mandatory": "No", "Role": "Variable Qualifier"}, {"ItemOID": "IT.SU.SUDOSFRM", "OrderNumber": 21, "Mandatory": "No", "Role": "Variable Qualifier"}, {"ItemOID": "IT.SU.SUDOSFRQ", "OrderNumber": 22, "Mandatory": "No", "Role": "Variable Qualifier"}, {"ItemOID": "IT.SU.SUDOSTOT", "OrderNumber": 23, "Mandatory": "No", "Role": "Record Qualifier"}, {"ItemOID": "IT.SU.SUROUTE", "OrderNumber": 24, "Mandatory": "No", "Role": "Variable Qualifier"}, {"ItemOID": "IT.SU.TAETORD", "OrderNumber": 25, "Mandatory": "No", "Role": "Timing"}, {"ItemOID": "IT.SU.EPOCH", "OrderNumber": 26, "Mandatory": "No", "Role": "Timing"}, {"ItemOID": "IT.SU.SUSTDTC", "OrderNumber": 27, "Mandatory": "No", "Role": "Timing"}, {"ItemOID": "IT.SU.SUENDTC", "OrderNumber": 28, "Mandatory": "No", "Role": "Timing"}, {"ItemOID": "IT.SU.SUSTDY", "OrderNumber": 29, "Mandatory": "No", "Role": "Timing"}, {"ItemOID": "IT.SU.SUENDY", "OrderNumber": 30, "Mandatory": "No", "Role": "Timing"}, {"ItemOID": "IT.SU.SUDUR", "OrderNumber": 31, "Mandatory": "No", "Role": "Timing"}, {"ItemOID": "IT.SU.SUSTRF", "OrderNumber": 32, "Mandatory": "No", "Role": "Timing"}, {"ItemOID": "IT.SU.SUENRF", "OrderNumber": 33, "Mandatory": "No", "Role": "Timing"}, {"ItemOID": "IT.SU.SUSTRTPT", "OrderNumber": 34, "Mandatory": "No", "Role": "Timing"}, {"ItemOID": "IT.SU.SUSTTPT", "OrderNumber": 35, "Mandatory": "No", "Role": "Timing"}, {"ItemOID": "IT.SU.SUENRTPT", "OrderNumber": 36, "Mandatory": "No", "Role": "Timing"}, {"ItemOID": "IT.SU.SUENTPT", "OrderNumber": 37, "Mandatory": "No", "Role": "Timing"}], "Class": {"Name": "INTERVENTIONS"}}, {"OID": "IGD.AE", "Name": "AE", "Domain": "AE", "Repeating": "No", "Purpose": "Tabulation", "Structure": "One record per adverse event per subject", "Description": {"TranslatedText": [{"lang": "en", "_content": "Adverse Events"}]}, "ItemRef": [{"ItemOID": "IT.AE.STUDYID", "OrderNumber": 1, "Mandatory": "No", "Role": "Identifier"}, {"ItemOID": "IT.AE.DOMAIN", "OrderNumber": 2, "Mandatory": "No", "Role": "Identifier"}, {"ItemOID": "IT.AE.USUBJID", "OrderNumber": 3, "Mandatory": "No", "Role": "Identifier"}, {"ItemOID": "IT.AE.SPDEVID", "OrderNumber": 4, "Mandatory": "No", "Role": "Identifier"}, {"ItemOID": "IT.AE.AESEQ", "OrderNumber": 5, "Mandatory": "No", "Role": "Identifier"}, {"ItemOID": "IT.AE.AEGRPID", "OrderNumber": 6, "Mandatory": "No", "Role": "Identifier"}, {"ItemOID": "IT.AE.AEREFID", "OrderNumber": 7, "Mandatory": "No", "Role": "Identifier"}, {"ItemOID": "IT.AE.AESPID", "OrderNumber": 8, "Mandatory": "No", "Role": "Identifier"}, {"ItemOID": "IT.AE.AETERM", "OrderNumber": 9, "Mandatory": "No", "Role": "Topic"}, {"ItemOID": "IT.AE.AEMODIFY", "OrderNumber": 10, "Mandatory": "No", "Role": "Synonym Qualifier"}, {"ItemOID": "IT.AE.AELLT", "OrderNumber": 11, "Mandatory": "No", "Role": "Variable Qualifier"}, {"ItemOID": "IT.AE.AELLTCD", "OrderNumber": 12, "Mandatory": "No", "Role": "Variable Qualifier"}, {"ItemOID": "IT.AE.AEDECOD", "OrderNumber": 13, "Mandatory": "No", "Role": "Synonym Qualifier"}, {"ItemOID": "IT.AE.AEPTCD", "OrderNumber": 14, "Mandatory": "No", "Role": "Variable Qualifier"}, {"ItemOID": "IT.AE.AEHLT", "OrderNumber": 15, "Mandatory": "No", "Role": "Variable Qualifier"}, {"ItemOID": "IT.AE.AEHLTCD", "OrderNumber": 16, "Mandatory": "No", "Role": "Variable Qualifier"}, {"ItemOID": "IT.AE.AEHLGT", "OrderNumber": 17, "Mandatory": "No", "Role": "Variable Qualifier"}, {"ItemOID": "IT.AE.AEHLGTCD", "OrderNumber": 18, "Mandatory": "No", "Role": "Variable Qualifier"}, {"ItemOID": "IT.AE.AECAT", "OrderNumber": 19, "Mandatory": "No", "Role": "Grouping Qualifier"}, {"ItemOID": "IT.AE.AESCAT", "OrderNumber": 20, "Mandatory": "No", "Role": "Grouping Qualifier"}, {"ItemOID": "IT.AE.AEPRESP", "OrderNumber": 21, "Mandatory": "No", "Role": "Variable Qualifier"}, {"ItemOID": "IT.AE.AEBODSYS", "OrderNumber": 22, "Mandatory": "No", "Role": "Record Qualifier"}, {"ItemOID": "IT.AE.AEBDSYCD", "OrderNumber": 23, "Mandatory": "No", "Role": "Variable Qualifier"}, {"ItemOID": "IT.AE.AESOC", "OrderNumber": 24, "Mandatory": "No", "Role": "Variable Qualifier"}, {"ItemOID": "IT.AE.AESOCCD", "OrderNumber": 25, "Mandatory": "No", "Role": "Variable Qualifier"}, {"ItemOID": "IT.AE.AELOC", "OrderNumber": 26, "Mandatory": "No", "Role": "Record Qualifier"}, {"ItemOID": "IT.AE.AESEV", "OrderNumber": 27, "Mandatory": "No", "Role": "Record Qualifier"}, {"ItemOID": "IT.AE.AESER", "OrderNumber": 28, "Mandatory": "No", "Role": "Record Qualifier"}, {"ItemOID": "IT.AE.AEACN", "OrderNumber": 29, "Mandatory": "No", "Role": "Record Qualifier"}, {"ItemOID": "IT.AE.AEACNOTH", "OrderNumber": 30, "Mandatory": "No", "Role": "Record Qualifier"}, {"ItemOID": "IT.AE.AEACNDEV", "OrderNumber": 31, "Mandatory": "No", "Role": "Record Qualifier"}, {"ItemOID": "IT.AE.AEREL", "OrderNumber": 32, "Mandatory": "No", "Role": "Record Qualifier"}, {"ItemOID": "IT.AE.AERLDEV", "OrderNumber": 33, "Mandatory": "No", "Role": "Record Qualifier"}, {"ItemOID": "IT.AE.AERELNST", "OrderNumber": 34, "Mandatory": "No", "Role": "Record Qualifier"}, {"ItemOID": "IT.AE.AEPATT", "OrderNumber": 35, "Mandatory": "No", "Role": "Record Qualifier"}, {"ItemOID": "IT.AE.AEOUT", "OrderNumber": 36, "Mandatory": "No", "Role": "Record Qualifier"}, {"ItemOID": "IT.AE.AESCAN", "OrderNumber": 37, "Mandatory": "No", "Role": "Record Qualifier"}, {"ItemOID": "IT.AE.AESCONG", "OrderNumber": 38, "Mandatory": "No", "Role": "Record Qualifier"}, {"ItemOID": "IT.AE.AESDISAB", "OrderNumber": 39, "Mandatory": "No", "Role": "Record Qualifier"}, {"ItemOID": "IT.AE.AESDTH", "OrderNumber": 40, "Mandatory": "No", "Role": "Record Qualifier"}, {"ItemOID": "IT.AE.AESHOSP", "OrderNumber": 41, "Mandatory": "No", "Role": "Record Qualifier"}, {"ItemOID": "IT.AE.AESLIFE", "OrderNumber": 42, "Mandatory": "No", "Role": "Record Qualifier"}, {"ItemOID": "IT.AE.AESOD", "OrderNumber": 43, "Mandatory": "No", "Role": "Record Qualifier"}, {"ItemOID": "IT.AE.AESMIE", "OrderNumber": 44, "Mandatory": "No", "Role": "Record Qualifier"}, {"ItemOID": "IT.AE.AESINTV", "OrderNumber": 45, "Mandatory": "No", "Role": "Record Qualifier"}, {"ItemOID": "IT.AE.AEUNANT", "OrderNumber": 46, "Mandatory": "No", "Role": "Record Qualifier"}, {"ItemOID": "IT.AE.AERLPRT", "OrderNumber": 47, "Mandatory": "No", "Role": "Record Qualifier"}, {"ItemOID": "IT.AE.AERLPRC", "OrderNumber": 48, "Mandatory": "No", "Role": "Record Qualifier"}, {"ItemOID": "IT.AE.AECONTRT", "OrderNumber": 49, "Mandatory": "No", "Role": "Record Qualifier"}, {"ItemOID": "IT.AE.AETOXGR", "OrderNumber": 50, "Mandatory": "No", "Role": "Record Qualifier"}, {"ItemOID": "IT.AE.TAETORD", "OrderNumber": 51, "Mandatory": "No", "Role": "Timing"}, {"ItemOID": "IT.AE.EPOCH", "OrderNumber": 52, "Mandatory": "No", "Role": "Timing"}, {"ItemOID": "IT.AE.AESTDTC", "OrderNumber": 53, "Mandatory": "No", "Role": "Timing"}, {"ItemOID": "IT.AE.AEENDTC", "OrderNumber": 54, "Mandatory": "No", "Role": "Timing"}, {"ItemOID": "IT.AE.AESTDY", "OrderNumber": 55, "Mandatory": "No", "Role": "Timing"}, {"ItemOID": "IT.AE.AEENDY", "OrderNumber": 56, "Mandatory": "No", "Role": "Timing"}, {"ItemOID": "IT.AE.AEDUR", "OrderNumber": 57, "Mandatory": "No", "Role": "Timing"}, {"ItemOID": "IT.AE.AEENRF", "OrderNumber": 58, "Mandatory": "No", "Role": "Timing"}, {"ItemOID": "IT.AE.AEENRTPT", "OrderNumber": 59, "Mandatory": "No", "Role": "Timing"}, {"ItemOID": "IT.AE.AEENTPT", "OrderNumber": 60, "Mandatory": "No", "Role": "Timing"}], "Class": {"Name": "EVENTS"}}, {"OID": "IGD.BE", "Name": "BE", "Domain": "BE", "Repeating": "No", "Purpose": "Tabulation", "Structure": "One record per instance per biospecimen event per biospecimen identifier per subject", "Description": {"TranslatedText": [{"lang": "en", "_content": "Biospecimen Events"}]}, "ItemRef": [{"ItemOID": "IT.BE.STUDYID", "OrderNumber": 1, "Mandatory": "No", "Role": "Identifier"}, {"ItemOID": "IT.BE.DOMAIN", "OrderNumber": 2, "Mandatory": "No", "Role": "Identifier"}, {"ItemOID": "IT.BE.USUBJID", "OrderNumber": 3, "Mandatory": "No", "Role": "Identifier"}, {"ItemOID": "IT.BE.SPDEVID", "OrderNumber": 4, "Mandatory": "No", "Role": "Identifier"}, {"ItemOID": "IT.BE.BESEQ", "OrderNumber": 5, "Mandatory": "No", "Role": "Identifier"}, {"ItemOID": "IT.BE.BEGRPID", "OrderNumber": 6, "Mandatory": "No", "Role": "Identifier"}, {"ItemOID": "IT.BE.BEREFID", "OrderNumber": 7, "Mandatory": "No", "Role": "Identifier"}, {"ItemOID": "IT.BE.BESPID", "OrderNumber": 8, "Mandatory": "No", "Role": "Identifier"}, {"ItemOID": "IT.BE.BETERM", "OrderNumber": 9, "Mandatory": "No", "Role": "Topic"}, {"ItemOID": "IT.BE.BEMODIFY", "OrderNumber": 10, "Mandatory": "No", "Role": "Synonym Qualifier"}, {"ItemOID": "IT.BE.BEDECOD", "OrderNumber": 11, "Mandatory": "No", "Role": "Synonym Qualifier"}, {"ItemOID": "IT.BE.BECAT", "OrderNumber": 12, "Mandatory": "No", "Role": "Grouping Qualifier"}, {"ItemOID": "IT.BE.BESCAT", "OrderNumber": 13, "Mandatory": "No", "Role": "Grouping Qualifier"}, {"ItemOID": "IT.BE.BELOC", "OrderNumber": 14, "Mandatory": "No", "Role": "Record Qualifier"}, {"ItemOID": "IT.BE.BEPARTY", "OrderNumber": 15, "Mandatory": "No", "Role": "Record Qualifier"}, {"ItemOID": "IT.BE.BEPRTYID", "OrderNumber": 16, "Mandatory": "No", "Role": "Record Qualifier"}, {"ItemOID": "IT.BE.VISITNUM", "OrderNumber": 17, "Mandatory": "No", "Role": "Timing"}, {"ItemOID": "IT.BE.VISIT", "OrderNumber": 18, "Mandatory": "No", "Role": "Timing"}, {"ItemOID": "IT.BE.VISITDY", "OrderNumber": 19, "Mandatory": "No", "Role": "Timing"}, {"ItemOID": "IT.BE.BEDTC", "OrderNumber": 20, "Mandatory": "No", "Role": "Timing"}, {"ItemOID": "IT.BE.BESTDTC", "OrderNumber": 21, "Mandatory": "No", "Role": "Timing"}, {"ItemOID": "IT.BE.BEENDTC", "OrderNumber": 22, "Mandatory": "No", "Role": "Timing"}, {"ItemOID": "IT.BE.BESTDY", "OrderNumber": 23, "Mandatory": "No", "Role": "Timing"}, {"ItemOID": "IT.BE.BEENDY", "OrderNumber": 24, "Mandatory": "No", "Role": "Timing"}, {"ItemOID": "IT.BE.BEDUR", "OrderNumber": 25, "Mandatory": "No", "Role": "Timing"}], "Class": {"Name": "EVENTS"}}, {"OID": "IGD.CE", "Name": "CE", "Domain": "CE", "Repeating": "No", "Purpose": "Tabulation", "Structure": "One record per event per subject", "Description": {"TranslatedText": [{"lang": "en", "_content": "Clinical Events"}]}, "ItemRef": [{"ItemOID": "IT.CE.STUDYID", "OrderNumber": 1, "Mandatory": "No", "Role": "Identifier"}, {"ItemOID": "IT.CE.DOMAIN", "OrderNumber": 2, "Mandatory": "No", "Role": "Identifier"}, {"ItemOID": "IT.CE.USUBJID", "OrderNumber": 3, "Mandatory": "No", "Role": "Identifier"}, {"ItemOID": "IT.CE.CESEQ", "OrderNumber": 4, "Mandatory": "No", "Role": "Identifier"}, {"ItemOID": "IT.CE.CEGRPID", "OrderNumber": 5, "Mandatory": "No", "Role": "Identifier"}, {"ItemOID": "IT.CE.CEREFID", "OrderNumber": 6, "Mandatory": "No", "Role": "Identifier"}, {"ItemOID": "IT.CE.CESPID", "OrderNumber": 7, "Mandatory": "No", "Role": "Identifier"}, {"ItemOID": "IT.CE.CETERM", "OrderNumber": 8, "Mandatory": "No", "Role": "Topic"}, {"ItemOID": "IT.CE.CEDECOD", "OrderNumber": 9, "Mandatory": "No", "Role": "Synonym Qualifier"}, {"ItemOID": "IT.CE.CECAT", "OrderNumber": 10, "Mandatory": "No", "Role": "Grouping Qualifier"}, {"ItemOID": "IT.CE.CESCAT", "OrderNumber": 11, "Mandatory": "No", "Role": "Grouping Qualifier"}, {"ItemOID": "IT.CE.CEPRESP", "OrderNumber": 12, "Mandatory": "No", "Role": "Variable Qualifier"}, {"ItemOID": "IT.CE.CEOCCUR", "OrderNumber": 13, "Mandatory": "No", "Role": "Record Qualifier"}, {"ItemOID": "IT.CE.CESTAT", "OrderNumber": 14, "Mandatory": "No", "Role": "Record Qualifier"}, {"ItemOID": "IT.CE.CEREASND", "OrderNumber": 15, "Mandatory": "No", "Role": "Record Qualifier"}, {"ItemOID": "IT.CE.CEBODSYS", "OrderNumber": 16, "Mandatory": "No", "Role": "Record Qualifier"}, {"ItemOID": "IT.CE.CESEV", "OrderNumber": 17, "Mandatory": "No", "Role": "Record Qualifier"}, {"ItemOID": "IT.CE.CETOXGR", "OrderNumber": 18, "Mandatory": "No", "Role": "Record Qualifier"}, {"ItemOID": "IT.CE.TAETORD", "OrderNumber": 19, "Mandatory": "No", "Role": "Timing"}, {"ItemOID": "IT.CE.EPOCH", "OrderNumber": 20, "Mandatory": "No", "Role": "Timing"}, {"ItemOID": "IT.CE.CEDTC", "OrderNumber": 21, "Mandatory": "No", "Role": "Timing"}, {"ItemOID": "IT.CE.CESTDTC", "OrderNumber": 22, "Mandatory": "No", "Role": "Timing"}, {"ItemOID": "IT.CE.CEENDTC", "OrderNumber": 23, "Mandatory": "No", "Role": "Timing"}, {"ItemOID": "IT.CE.CEDY", "OrderNumber": 24, "Mandatory": "No", "Role": "Timing"}, {"ItemOID": "IT.CE.CESTDY", "OrderNumber": 25, "Mandatory": "No", "Role": "Timing"}, {"ItemOID": "IT.CE.CEENDY", "OrderNumber": 26, "Mandatory": "No", "Role": "Timing"}, {"ItemOID": "IT.CE.CESTRF", "OrderNumber": 27, "Mandatory": "No", "Role": "Timing"}, {"ItemOID": "IT.CE.CEENRF", "OrderNumber": 28, "Mandatory": "No", "Role": "Timing"}, {"ItemOID": "IT.CE.CESTRTPT", "OrderNumber": 29, "Mandatory": "No", "Role": "Timing"}, {"ItemOID": "IT.CE.CESTTPT", "OrderNumber": 30, "Mandatory": "No", "Role": "Timing"}, {"ItemOID": "IT.CE.CEENRTPT", "OrderNumber": 31, "Mandatory": "No", "Role": "Timing"}, {"ItemOID": "IT.CE.CEENTPT", "OrderNumber": 32, "Mandatory": "No", "Role": "Timing"}], "Class": {"Name": "EVENTS"}}, {"OID": "IGD.DS", "Name": "DS", "Domain": "DS", "Repeating": "No", "Purpose": "Tabulation", "Structure": "One record per disposition status or protocol milestone per subject", "Description": {"TranslatedText": [{"lang": "en", "_content": "Disposition"}]}, "ItemRef": [{"ItemOID": "IT.DS.STUDYID", "OrderNumber": 1, "Mandatory": "No", "Role": "Identifier"}, {"ItemOID": "IT.DS.DOMAIN", "OrderNumber": 2, "Mandatory": "No", "Role": "Identifier"}, {"ItemOID": "IT.DS.USUBJID", "OrderNumber": 3, "Mandatory": "No", "Role": "Identifier"}, {"ItemOID": "IT.DS.DSSEQ", "OrderNumber": 4, "Mandatory": "No", "Role": "Identifier"}, {"ItemOID": "IT.DS.DSGRPID", "OrderNumber": 5, "Mandatory": "No", "Role": "Identifier"}, {"ItemOID": "IT.DS.DSREFID", "OrderNumber": 6, "Mandatory": "No", "Role": "Identifier"}, {"ItemOID": "IT.DS.DSSPID", "OrderNumber": 7, "Mandatory": "No", "Role": "Identifier"}, {"ItemOID": "IT.DS.DSTERM", "OrderNumber": 8, "Mandatory": "No", "Role": "Topic"}, {"ItemOID": "IT.DS.DSDECOD", "OrderNumber": 9, "Mandatory": "No", "Role": "Synonym Qualifier"}, {"ItemOID": "IT.DS.DSCAT", "OrderNumber": 10, "Mandatory": "No", "Role": "Grouping Qualifier"}, {"ItemOID": "IT.DS.DSSCAT", "OrderNumber": 11, "Mandatory": "No", "Role": "Grouping Qualifier"}, {"ItemOID": "IT.DS.EPOCH", "OrderNumber": 12, "Mandatory": "No", "Role": "Timing"}, {"ItemOID": "IT.DS.DSDTC", "OrderNumber": 13, "Mandatory": "No", "Role": "Timing"}, {"ItemOID": "IT.DS.DSSTDTC", "OrderNumber": 14, "Mandatory": "No", "Role": "Timing"}, {"ItemOID": "IT.DS.DSDY", "OrderNumber": 15, "Mandatory": "No", "Role": "Timing"}, {"ItemOID": "IT.DS.DSSTDY", "OrderNumber": 16, "Mandatory": "No", "Role": "Timing"}], "Class": {"Name": "EVENTS"}}, {"OID": "IGD.DV", "Name": "DV", "Domain": "DV", "Repeating": "No", "Purpose": "Tabulation", "Structure": "One record per protocol deviation per subject", "Description": {"TranslatedText": [{"lang": "en", "_content": "Protocol Deviations"}]}, "ItemRef": [{"ItemOID": "IT.DV.STUDYID", "OrderNumber": 1, "Mandatory": "No", "Role": "Identifier"}, {"ItemOID": "IT.DV.DOMAIN", "OrderNumber": 2, "Mandatory": "No", "Role": "Identifier"}, {"ItemOID": "IT.DV.USUBJID", "OrderNumber": 3, "Mandatory": "No", "Role": "Identifier"}, {"ItemOID": "IT.DV.DVSEQ", "OrderNumber": 4, "Mandatory": "No", "Role": "Identifier"}, {"ItemOID": "IT.DV.DVREFID", "OrderNumber": 5, "Mandatory": "No", "Role": "Identifier"}, {"ItemOID": "IT.DV.DVSPID", "OrderNumber": 6, "Mandatory": "No", "Role": "Identifier"}, {"ItemOID": "IT.DV.DVTERM", "OrderNumber": 7, "Mandatory": "No", "Role": "Topic"}, {"ItemOID": "IT.DV.DVDECOD", "OrderNumber": 8, "Mandatory": "No", "Role": "Synonym Qualifier"}, {"ItemOID": "IT.DV.DVCAT", "OrderNumber": 9, "Mandatory": "No", "Role": "Grouping Qualifier"}, {"ItemOID": "IT.DV.DVSCAT", "OrderNumber": 10, "Mandatory": "No", "Role": "Grouping Qualifier"}, {"ItemOID": "IT.DV.TAETORD", "OrderNumber": 11, "Mandatory": "No", "Role": "Timing"}, {"ItemOID": "IT.DV.EPOCH", "OrderNumber": 12, "Mandatory": "No", "Role": "Timing"}, {"ItemOID": "IT.DV.DVSTDTC", "OrderNumber": 13, "Mandatory": "No", "Role": "Timing"}, {"ItemOID": "IT.DV.DVENDTC", "OrderNumber": 14, "Mandatory": "No", "Role": "Timing"}, {"ItemOID": "IT.DV.DVSTDY", "OrderNumber": 15, "Mandatory": "No", "Role": "Timing"}, {"ItemOID": "IT.DV.DVENDY", "OrderNumber": 16, "Mandatory": "No", "Role": "Timing"}], "Class": {"Name": "EVENTS"}}, {"OID": "IGD.HO", "Name": "HO", "Domain": "HO", "Repeating": "No", "Purpose": "Tabulation", "Structure": "One record per healthcare encounter per subject", "Description": {"TranslatedText": [{"lang": "en", "_content": "Healthcare Encounters"}]}, "ItemRef": [{"ItemOID": "IT.HO.STUDYID", "OrderNumber": 1, "Mandatory": "No", "Role": "Identifier"}, {"ItemOID": "IT.HO.DOMAIN", "OrderNumber": 2, "Mandatory": "No", "Role": "Identifier"}, {"ItemOID": "IT.HO.USUBJID", "OrderNumber": 3, "Mandatory": "No", "Role": "Identifier"}, {"ItemOID": "IT.HO.HOSEQ", "OrderNumber": 4, "Mandatory": "No", "Role": "Identifier"}, {"ItemOID": "IT.HO.HOGRPID", "OrderNumber": 5, "Mandatory": "No", "Role": "Identifier"}, {"ItemOID": "IT.HO.HOREFID", "OrderNumber": 6, "Mandatory": "No", "Role": "Identifier"}, {"ItemOID": "IT.HO.HOSPID", "OrderNumber": 7, "Mandatory": "No", "Role": "Identifier"}, {"ItemOID": "IT.HO.HOTERM", "OrderNumber": 8, "Mandatory": "No", "Role": "Topic"}, {"ItemOID": "IT.HO.HODECOD", "OrderNumber": 9, "Mandatory": "No", "Role": "Synonym Qualifier"}, {"ItemOID": "IT.HO.HOCAT", "OrderNumber": 10, "Mandatory": "No", "Role": "Grouping Qualifier"}, {"ItemOID": "IT.HO.HOSCAT", "OrderNumber": 11, "Mandatory": "No", "Role": "Grouping Qualifier"}, {"ItemOID": "IT.HO.HOPRESP", "OrderNumber": 12, "Mandatory": "No", "Role": "Variable Qualifier"}, {"ItemOID": "IT.HO.HOOCCUR", "OrderNumber": 13, "Mandatory": "No", "Role": "Record Qualifier"}, {"ItemOID": "IT.HO.HOSTAT", "OrderNumber": 14, "Mandatory": "No", "Role": "Record Qualifier"}, {"ItemOID": "IT.HO.HOREASND", "OrderNumber": 15, "Mandatory": "No", "Role": "Record Qualifier"}, {"ItemOID": "IT.HO.TAETORD", "OrderNumber": 16, "Mandatory": "No", "Role": "Timing"}, {"ItemOID": "IT.HO.EPOCH", "OrderNumber": 17, "Mandatory": "No", "Role": "Timing"}, {"ItemOID": "IT.HO.HODTC", "OrderNumber": 18, "Mandatory": "No", "Role": "Timing"}, {"ItemOID": "IT.HO.HOSTDTC", "OrderNumber": 19, "Mandatory": "No", "Role": "Timing"}, {"ItemOID": "IT.HO.HOENDTC", "OrderNumber": 20, "Mandatory": "No", "Role": "Timing"}, {"ItemOID": "IT.HO.HODY", "OrderNumber": 21, "Mandatory": "No", "Role": "Timing"}, {"ItemOID": "IT.HO.HOSTDY", "OrderNumber": 22, "Mandatory": "No", "Role": "Timing"}, {"ItemOID": "IT.HO.HOENDY", "OrderNumber": 23, "Mandatory": "No", "Role": "Timing"}, {"ItemOID": "IT.HO.HODUR", "OrderNumber": 24, "Mandatory": "No", "Role": "Timing"}, {"ItemOID": "IT.HO.HOSTRTPT", "OrderNumber": 25, "Mandatory": "No", "Role": "Timing"}, {"ItemOID": "IT.HO.HOSTTPT", "OrderNumber": 26, "Mandatory": "No", "Role": "Timing"}, {"ItemOID": "IT.HO.HOENRTPT", "OrderNumber": 27, "Mandatory": "No", "Role": "Timing"}, {"ItemOID": "IT.HO.HOENTPT", "OrderNumber": 28, "Mandatory": "No", "Role": "Timing"}], "Class": {"Name": "EVENTS"}}, {"OID": "IGD.MH", "Name": "MH", "Domain": "MH", "Repeating": "No", "Purpose": "Tabulation", "Structure": "One record per medical history event per subject", "Description": {"TranslatedText": [{"lang": "en", "_content": "Medical History"}]}, "ItemRef": [{"ItemOID": "IT.MH.STUDYID", "OrderNumber": 1, "Mandatory": "No", "Role": "Identifier"}, {"ItemOID": "IT.MH.DOMAIN", "OrderNumber": 2, "Mandatory": "No", "Role": "Identifier"}, {"ItemOID": "IT.MH.USUBJID", "OrderNumber": 3, "Mandatory": "No", "Role": "Identifier"}, {"ItemOID": "IT.MH.MHSEQ", "OrderNumber": 4, "Mandatory": "No", "Role": "Identifier"}, {"ItemOID": "IT.MH.MHGRPID", "OrderNumber": 5, "Mandatory": "No", "Role": "Identifier"}, {"ItemOID": "IT.MH.MHREFID", "OrderNumber": 6, "Mandatory": "No", "Role": "Identifier"}, {"ItemOID": "IT.MH.MHSPID", "OrderNumber": 7, "Mandatory": "No", "Role": "Identifier"}, {"ItemOID": "IT.MH.MHTERM", "OrderNumber": 8, "Mandatory": "No", "Role": "Topic"}, {"ItemOID": "IT.MH.MHMODIFY", "OrderNumber": 9, "Mandatory": "No", "Role": "Synonym Qualifier"}, {"ItemOID": "IT.MH.MHDECOD", "OrderNumber": 10, "Mandatory": "No", "Role": "Synonym Qualifier"}, {"ItemOID": "IT.MH.MHEVDTYP", "OrderNumber": 11, "Mandatory": "No", "Role": "Variable Qualifier"}, {"ItemOID": "IT.MH.MHCAT", "OrderNumber": 12, "Mandatory": "No", "Role": "Grouping Qualifier"}, {"ItemOID": "IT.MH.MHSCAT", "OrderNumber": 13, "Mandatory": "No", "Role": "Grouping Qualifier"}, {"ItemOID": "IT.MH.MHPRESP", "OrderNumber": 14, "Mandatory": "No", "Role": "Variable Qualifier"}, {"ItemOID": "IT.MH.MHOCCUR", "OrderNumber": 15, "Mandatory": "No", "Role": "Record Qualifier"}, {"ItemOID": "IT.MH.MHSTAT", "OrderNumber": 16, "Mandatory": "No", "Role": "Record Qualifier"}, {"ItemOID": "IT.MH.MHREASND", "OrderNumber": 17, "Mandatory": "No", "Role": "Record Qualifier"}, {"ItemOID": "IT.MH.MHBODSYS", "OrderNumber": 18, "Mandatory": "No", "Role": "Record Qualifier"}, {"ItemOID": "IT.MH.TAETORD", "OrderNumber": 19, "Mandatory": "No", "Role": "Timing"}, {"ItemOID": "IT.MH.EPOCH", "OrderNumber": 20, "Mandatory": "No", "Role": "Timing"}, {"ItemOID": "IT.MH.MHDTC", "OrderNumber": 21, "Mandatory": "No", "Role": "Timing"}, {"ItemOID": "IT.MH.MHSTDTC", "OrderNumber": 22, "Mandatory": "No", "Role": "Timing"}, {"ItemOID": "IT.MH.MHENDTC", "OrderNumber": 23, "Mandatory": "No", "Role": "Timing"}, {"ItemOID": "IT.MH.MHDY", "OrderNumber": 24, "Mandatory": "No", "Role": "Timing"}, {"ItemOID": "IT.MH.MHENRF", "OrderNumber": 25, "Mandatory": "No", "Role": "Timing"}, {"ItemOID": "IT.MH.MHENRTPT", "OrderNumber": 26, "Mandatory": "No", "Role": "Timing"}, {"ItemOID": "IT.MH.MHENTPT", "OrderNumber": 27, "Mandatory": "No", "Role": "Timing"}], "Class": {"Name": "EVENTS"}}, {"OID": "IGD.BS", "Name": "BS", "Domain": "BS", "Repeating": "No", "Purpose": "Tabulation", "Structure": "One record per measurement per biospecimen identifier per subject", "Description": {"TranslatedText": [{"lang": "en", "_content": "Biospecimen Findings"}]}, "ItemRef": [{"ItemOID": "IT.BS.STUDYID", "OrderNumber": 1, "Mandatory": "No", "Role": "Identifier"}, {"ItemOID": "IT.BS.DOMAIN", "OrderNumber": 2, "Mandatory": "No", "Role": "Identifier"}, {"ItemOID": "IT.BS.USUBJID", "OrderNumber": 3, "Mandatory": "No", "Role": "Identifier"}, {"ItemOID": "IT.BS.SPDEVID", "OrderNumber": 4, "Mandatory": "No", "Role": "Identifier"}, {"ItemOID": "IT.BS.BSSEQ", "OrderNumber": 5, "Mandatory": "No", "Role": "Identifier"}, {"ItemOID": "IT.BS.BSGRPID", "OrderNumber": 6, "Mandatory": "No", "Role": "Identifier"}, {"ItemOID": "IT.BS.BSREFID", "OrderNumber": 7, "Mandatory": "No", "Role": "Identifier"}, {"ItemOID": "IT.BS.BSSPID", "OrderNumber": 8, "Mandatory": "No", "Role": "Identifier"}, {"ItemOID": "IT.BS.BSTESTCD", "OrderNumber": 9, "Mandatory": "No", "Role": "Topic"}, {"ItemOID": "IT.BS.BSTEST", "OrderNumber": 10, "Mandatory": "No", "Role": "Synonym Qualifier"}, {"ItemOID": "IT.BS.BSCAT", "OrderNumber": 11, "Mandatory": "No", "Role": "Grouping Qualifier"}, {"ItemOID": "IT.BS.BSSCAT", "OrderNumber": 12, "Mandatory": "No", "Role": "Grouping Qualifier"}, {"ItemOID": "IT.BS.BSORRES", "OrderNumber": 13, "Mandatory": "No", "Role": "Result Qualifier"}, {"ItemOID": "IT.BS.BSORRESU", "OrderNumber": 14, "Mandatory": "No", "Role": "Variable Qualifier"}, {"ItemOID": "IT.BS.BSSTRESC", "OrderNumber": 15, "Mandatory": "No", "Role": "Result Qualifier"}, {"ItemOID": "IT.BS.BSSTRESN", "OrderNumber": 16, "Mandatory": "No", "Role": "Result Qualifier"}, {"ItemOID": "IT.BS.BSSTRESU", "OrderNumber": 17, "Mandatory": "No", "Role": "Variable Qualifier"}, {"ItemOID": "IT.BS.BSSTAT", "OrderNumber": 18, "Mandatory": "No", "Role": "Record Qualifier"}, {"ItemOID": "IT.BS.BSREASND", "OrderNumber": 19, "Mandatory": "No", "Role": "Record Qualifier"}, {"ItemOID": "IT.BS.BSNAM", "OrderNumber": 20, "Mandatory": "No", "Role": "Record Qualifier"}, {"ItemOID": "IT.BS.BSSPEC", "OrderNumber": 21, "Mandatory": "No", "Role": "Record Qualifier"}, {"ItemOID": "IT.BS.BSANTREG", "OrderNumber": 22, "Mandatory": "No", "Role": "Variable Qualifier"}, {"ItemOID": "IT.BS.BSSPCCND", "OrderNumber": 23, "Mandatory": "No", "Role": "Record Qualifier"}, {"ItemOID": "IT.BS.BSMETHOD", "OrderNumber": 24, "Mandatory": "No", "Role": "Record Qualifier"}, {"ItemOID": "IT.BS.BSBLFL", "OrderNumber": 25, "Mandatory": "No", "Role": "Record Qualifier"}, {"ItemOID": "IT.BS.VISITNUM", "OrderNumber": 26, "Mandatory": "No", "Role": "Timing"}, {"ItemOID": "IT.BS.VISIT", "OrderNumber": 27, "Mandatory": "No", "Role": "Timing"}, {"ItemOID": "IT.BS.VISITDY", "OrderNumber": 28, "Mandatory": "No", "Role": "Timing"}, {"ItemOID": "IT.BS.BSDTC", "OrderNumber": 29, "Mandatory": "No", "Role": "Timing"}, {"ItemOID": "IT.BS.BSDY", "OrderNumber": 30, "Mandatory": "No", "Role": "Timing"}, {"ItemOID": "IT.BS.BSTPT", "OrderNumber": 31, "Mandatory": "No", "Role": "Timing"}, {"ItemOID": "IT.BS.BSTPTNUM", "OrderNumber": 32, "Mandatory": "No", "Role": "Timing"}, {"ItemOID": "IT.BS.BSELTM", "OrderNumber": 33, "Mandatory": "No", "Role": "Timing"}, {"ItemOID": "IT.BS.BSTPTREF", "OrderNumber": 34, "Mandatory": "No", "Role": "Timing"}, {"ItemOID": "IT.BS.BSRFTDTC", "OrderNumber": 35, "Mandatory": "No", "Role": "Timing"}], "Class": {"Name": "FINDINGS"}}, {"OID": "IGD.CP", "Name": "CP", "Domain": "CP", "Repeating": "No", "Purpose": "Tabulation", "Structure": "One record per test per specimen per timepoint per visit per subject", "Description": {"TranslatedText": [{"lang": "en", "_content": "Cell Phenotype Findings"}]}, "ItemRef": [{"ItemOID": "IT.CP.STUDYID", "OrderNumber": 1, "Mandatory": "No", "Role": "Identifier"}, {"ItemOID": "IT.CP.DOMAIN", "OrderNumber": 2, "Mandatory": "No", "Role": "Identifier"}, {"ItemOID": "IT.CP.USUBJID", "OrderNumber": 3, "Mandatory": "No", "Role": "Identifier"}, {"ItemOID": "IT.CP.CPSEQ", "OrderNumber": 4, "Mandatory": "No", "Role": "Identifier"}, {"ItemOID": "IT.CP.CPGRPID", "OrderNumber": 5, "Mandatory": "No", "Role": "Identifier"}, {"ItemOID": "IT.CP.CPREFID", "OrderNumber": 6, "Mandatory": "No", "Role": "Identifier"}, {"ItemOID": "IT.CP.CPSPID", "OrderNumber": 7, "Mandatory": "No", "Role": "Identifier"}, {"ItemOID": "IT.CP.CPLNKID", "OrderNumber": 8, "Mandatory": "No", "Role": "Identifier"}, {"ItemOID": "IT.CP.CPLNKGRP", "OrderNumber": 9, "Mandatory": "No", "Role": "Identifier"}, {"ItemOID": "IT.CP.CPTESTCD", "OrderNumber": 10, "Mandatory": "No", "Role": "Topic"}, {"ItemOID": "IT.CP.CPTEST", "OrderNumber": 11, "Mandatory": "No", "Role": "Synonym Qualifier"}, {"ItemOID": "IT.CP.CPSBMRKS", "OrderNumber": 12, "Mandatory": "No", "Role": "Variable Qualifier"}, {"ItemOID": "IT.CP.CPCELSTA", "OrderNumber": 13, "Mandatory": "No", "Role": "Variable Qualifier"}, {"ItemOID": "IT.CP.CPCSMRKS", "OrderNumber": 14, "Mandatory": "No", "Role": "Variable Qualifier"}, {"ItemOID": "IT.CP.CPTSTCND", "OrderNumber": 15, "Mandatory": "No", "Role": "Variable Qualifier"}, {"ItemOID": "IT.CP.CPCNDAGT", "OrderNumber": 16, "Mandatory": "No", "Role": "Record Qualifier"}, {"ItemOID": "IT.CP.CPBDAGNT", "OrderNumber": 17, "Mandatory": "No", "Role": "Record Qualifier"}, {"ItemOID": "IT.CP.CPABCLID", "OrderNumber": 18, "Mandatory": "No", "Role": "Record Qualifier"}, {"ItemOID": "IT.CP.CPMRKSTR", "OrderNumber": 19, "Mandatory": "No", "Role": "Record Qualifier"}, {"ItemOID": "IT.CP.CPGATE", "OrderNumber": 20, "Mandatory": "No", "Role": "Record Qualifier"}, {"ItemOID": "IT.CP.CPGATDEF", "OrderNumber": 21, "Mandatory": "No", "Role": "Record Qualifier"}, {"ItemOID": "IT.CP.CPSPTSTD", "OrderNumber": 22, "Mandatory": "No", "Role": "Record Qualifier"}, {"ItemOID": "IT.CP.CPCAT", "OrderNumber": 23, "Mandatory": "No", "Role": "Grouping Qualifier"}, {"ItemOID": "IT.CP.CPSCAT", "OrderNumber": 24, "Mandatory": "No", "Role": "Grouping Qualifier"}, {"ItemOID": "IT.CP.CPTSTPNL", "OrderNumber": 25, "Mandatory": "No", "Role": "Grouping Qualifier"}, {"ItemOID": "IT.CP.CPORRES", "OrderNumber": 26, "Mandatory": "No", "Role": "Result Qualifier"}, {"ItemOID": "IT.CP.CPORRESU", "OrderNumber": 27, "Mandatory": "No", "Role": "Variable Qualifier"}, {"ItemOID": "IT.CP.CPRESSCL", "OrderNumber": 28, "Mandatory": "No", "Role": "Record Qualifier"}, {"ItemOID": "IT.CP.CPRESTYP", "OrderNumber": 29, "Mandatory": "No", "Role": "Record Qualifier"}, {"ItemOID": "IT.CP.CPCOLSRT", "OrderNumber": 30, "Mandatory": "No", "Role": "Record Qualifier"}, {"ItemOID": "IT.CP.CPORNRLO", "OrderNumber": 31, "Mandatory": "No", "Role": "Variable Qualifier"}, {"ItemOID": "IT.CP.CPORNRHI", "OrderNumber": 32, "Mandatory": "No", "Role": "Variable Qualifier"}, {"ItemOID": "IT.CP.CPSTRESC", "OrderNumber": 33, "Mandatory": "No", "Role": "Result Qualifier"}, {"ItemOID": "IT.CP.CPSTRESN", "OrderNumber": 34, "Mandatory": "No", "Role": "Result Qualifier"}, {"ItemOID": "IT.CP.CPSTRESU", "OrderNumber": 35, "Mandatory": "No", "Role": "Variable Qualifier"}, {"ItemOID": "IT.CP.CPSTNRLO", "OrderNumber": 36, "Mandatory": "No", "Role": "Variable Qualifier"}, {"ItemOID": "IT.CP.CPSTNRHI", "OrderNumber": 37, "Mandatory": "No", "Role": "Variable Qualifier"}, {"ItemOID": "IT.CP.CPNRIND", "OrderNumber": 38, "Mandatory": "No", "Role": "Variable Qualifier"}, {"ItemOID": "IT.CP.CPSTAT", "OrderNumber": 39, "Mandatory": "No", "Role": "Record Qualifier"}, {"ItemOID": "IT.CP.CPREASND", "OrderNumber": 40, "Mandatory": "No", "Role": "Record Qualifier"}, {"ItemOID": "IT.CP.CPNAM", "OrderNumber": 41, "Mandatory": "No", "Role": "Record Qualifier"}, {"ItemOID": "IT.CP.CPLOINC", "OrderNumber": 42, "Mandatory": "No", "Role": "Synonym Qualifier"}, {"ItemOID": "IT.CP.CPSPEC", "OrderNumber": 43, "Mandatory": "No", "Role": "Record Qualifier"}, {"ItemOID": "IT.CP.CPSPCCND", "OrderNumber": 44, "Mandatory": "No", "Role": "Record Qualifier"}, {"ItemOID": "IT.CP.CPMETHOD", "OrderNumber": 45, "Mandatory": "No", "Role": "Record Qualifier"}, {"ItemOID": "IT.CP.CPANMETH", "OrderNumber": 46, "Mandatory": "No", "Role": "Record Qualifier"}, {"ItemOID": "IT.CP.CPLOBXFL", "OrderNumber": 47, "Mandatory": "No", "Role": "Record Qualifier"}, {"ItemOID": "IT.CP.CPBLFL", "OrderNumber": 48, "Mandatory": "No", "Role": "Record Qualifier"}, {"ItemOID": "IT.CP.CPDRVFL", "OrderNumber": 49, "Mandatory": "No", "Role": "Record Qualifier"}, {"ItemOID": "IT.CP.CPCLSIG", "OrderNumber": 50, "Mandatory": "No", "Role": "Record Qualifier"}, {"ItemOID": "IT.CP.VISITNUM", "OrderNumber": 51, "Mandatory": "No", "Role": "Timing"}, {"ItemOID": "IT.CP.VISIT", "OrderNumber": 52, "Mandatory": "No", "Role": "Timing"}, {"ItemOID": "IT.CP.VISITDY", "OrderNumber": 53, "Mandatory": "No", "Role": "Timing"}, {"ItemOID": "IT.CP.TAETORD", "OrderNumber": 54, "Mandatory": "No", "Role": "Timing"}, {"ItemOID": "IT.CP.EPOCH", "OrderNumber": 55, "Mandatory": "No", "Role": "Timing"}, {"ItemOID": "IT.CP.CPDTC", "OrderNumber": 56, "Mandatory": "No", "Role": "Timing"}, {"ItemOID": "IT.CP.CPDY", "OrderNumber": 57, "Mandatory": "No", "Role": "Timing"}, {"ItemOID": "IT.CP.CPTPT", "OrderNumber": 58, "Mandatory": "No", "Role": "Timing"}, {"ItemOID": "IT.CP.CPTPTNUM", "OrderNumber": 59, "Mandatory": "No", "Role": "Timing"}, {"ItemOID": "IT.CP.CPELTM", "OrderNumber": 60, "Mandatory": "No", "Role": "Timing"}, {"ItemOID": "IT.CP.CPTPTREF", "OrderNumber": 61, "Mandatory": "No", "Role": "Timing"}, {"ItemOID": "IT.CP.CPRFTDTC", "OrderNumber": 62, "Mandatory": "No", "Role": "Timing"}], "Class": {"Name": "FINDINGS"}}, {"OID": "IGD.CV", "Name": "CV", "Domain": "CV", "Repeating": "No", "Purpose": "Tabulation", "Structure": "One record per finding or result per time point per visit per subject", "Description": {"TranslatedText": [{"lang": "en", "_content": "Cardiovascular System Findings"}]}, "ItemRef": [{"ItemOID": "IT.CV.STUDYID", "OrderNumber": 1, "Mandatory": "No", "Role": "Identifier"}, {"ItemOID": "IT.CV.DOMAIN", "OrderNumber": 2, "Mandatory": "No", "Role": "Identifier"}, {"ItemOID": "IT.CV.USUBJID", "OrderNumber": 3, "Mandatory": "No", "Role": "Identifier"}, {"ItemOID": "IT.CV.CVSEQ", "OrderNumber": 4, "Mandatory": "No", "Role": "Identifier"}, {"ItemOID": "IT.CV.CVGRPID", "OrderNumber": 5, "Mandatory": "No", "Role": "Identifier"}, {"ItemOID": "IT.CV.CVREFID", "OrderNumber": 6, "Mandatory": "No", "Role": "Identifier"}, {"ItemOID": "IT.CV.CVSPID", "OrderNumber": 7, "Mandatory": "No", "Role": "Identifier"}, {"ItemOID": "IT.CV.CVLNKID", "OrderNumber": 8, "Mandatory": "No", "Role": "Identifier"}, {"ItemOID": "IT.CV.CVLNKGRP", "OrderNumber": 9, "Mandatory": "No", "Role": "Identifier"}, {"ItemOID": "IT.CV.CVTESTCD", "OrderNumber": 10, "Mandatory": "No", "Role": "Topic"}, {"ItemOID": "IT.CV.CVTEST", "OrderNumber": 11, "Mandatory": "No", "Role": "Synonym Qualifier"}, {"ItemOID": "IT.CV.CVCAT", "OrderNumber": 12, "Mandatory": "No", "Role": "Grouping Qualifier"}, {"ItemOID": "IT.CV.CVSCAT", "OrderNumber": 13, "Mandatory": "No", "Role": "Grouping Qualifier"}, {"ItemOID": "IT.CV.CVPOS", "OrderNumber": 14, "Mandatory": "No", "Role": "Record Qualifier"}, {"ItemOID": "IT.CV.CVORRES", "OrderNumber": 15, "Mandatory": "No", "Role": "Result Qualifier"}, {"ItemOID": "IT.CV.CVORRESU", "OrderNumber": 16, "Mandatory": "No", "Role": "Variable Qualifier"}, {"ItemOID": "IT.CV.CVSTRESC", "OrderNumber": 17, "Mandatory": "No", "Role": "Result Qualifier"}, {"ItemOID": "IT.CV.CVSTRESN", "OrderNumber": 18, "Mandatory": "No", "Role": "Result Qualifier"}, {"ItemOID": "IT.CV.CVSTRESU", "OrderNumber": 19, "Mandatory": "No", "Role": "Variable Qualifier"}, {"ItemOID": "IT.CV.CVSTAT", "OrderNumber": 20, "Mandatory": "No", "Role": "Record Qualifier"}, {"ItemOID": "IT.CV.CVREASND", "OrderNumber": 21, "Mandatory": "No", "Role": "Record Qualifier"}, {"ItemOID": "IT.CV.CVLOC", "OrderNumber": 22, "Mandatory": "No", "Role": "Record Qualifier"}, {"ItemOID": "IT.CV.CVLAT", "OrderNumber": 23, "Mandatory": "No", "Role": "Variable Qualifier"}, {"ItemOID": "IT.CV.CVDIR", "OrderNumber": 24, "Mandatory": "No", "Role": "Variable Qualifier"}, {"ItemOID": "IT.CV.CVMETHOD", "OrderNumber": 25, "Mandatory": "No", "Role": "Record Qualifier"}, {"ItemOID": "IT.CV.CVLOBXFL", "OrderNumber": 26, "Mandatory": "No", "Role": "Record Qualifier"}, {"ItemOID": "IT.CV.CVBLFL", "OrderNumber": 27, "Mandatory": "No", "Role": "Record Qualifier"}, {"ItemOID": "IT.CV.CVDRVFL", "OrderNumber": 28, "Mandatory": "No", "Role": "Record Qualifier"}, {"ItemOID": "IT.CV.CVEVAL", "OrderNumber": 29, "Mandatory": "No", "Role": "Record Qualifier"}, {"ItemOID": "IT.CV.CVEVALID", "OrderNumber": 30, "Mandatory": "No", "Role": "Variable Qualifier"}, {"ItemOID": "IT.CV.VISITNUM", "OrderNumber": 31, "Mandatory": "No", "Role": "Timing"}, {"ItemOID": "IT.CV.VISIT", "OrderNumber": 32, "Mandatory": "No", "Role": "Timing"}, {"ItemOID": "IT.CV.VISITDY", "OrderNumber": 33, "Mandatory": "No", "Role": "Timing"}, {"ItemOID": "IT.CV.TAETORD", "OrderNumber": 34, "Mandatory": "No", "Role": "Timing"}, {"ItemOID": "IT.CV.EPOCH", "OrderNumber": 35, "Mandatory": "No", "Role": "Timing"}, {"ItemOID": "IT.CV.CVDTC", "OrderNumber": 36, "Mandatory": "No", "Role": "Timing"}, {"ItemOID": "IT.CV.CVDY", "OrderNumber": 37, "Mandatory": "No", "Role": "Timing"}, {"ItemOID": "IT.CV.CVTPT", "OrderNumber": 38, "Mandatory": "No", "Role": "Timing"}, {"ItemOID": "IT.CV.CVTPTNUM", "OrderNumber": 39, "Mandatory": "No", "Role": "Timing"}, {"ItemOID": "IT.CV.CVELTM", "OrderNumber": 40, "Mandatory": "No", "Role": "Timing"}, {"ItemOID": "IT.CV.CVTPTREF", "OrderNumber": 41, "Mandatory": "No", "Role": "Timing"}, {"ItemOID": "IT.CV.CVRFTDTC", "OrderNumber": 42, "Mandatory": "No", "Role": "Timing"}], "Class": {"Name": "FINDINGS"}}, {"OID": "IGD.DA", "Name": "DA", "Domain": "DA", "Repeating": "No", "Purpose": "Tabulation", "Structure": "One record per product accountability finding per subject", "Description": {"TranslatedText": [{"lang": "en", "_content": "Product Accountability"}]}, "ItemRef": [{"ItemOID": "IT.DA.STUDYID", "OrderNumber": 1, "Mandatory": "No", "Role": "Identifier"}, {"ItemOID": "IT.DA.DOMAIN", "OrderNumber": 2, "Mandatory": "No", "Role": "Identifier"}, {"ItemOID": "IT.DA.USUBJID", "OrderNumber": 3, "Mandatory": "No", "Role": "Identifier"}, {"ItemOID": "IT.DA.DASEQ", "OrderNumber": 4, "Mandatory": "No", "Role": "Identifier"}, {"ItemOID": "IT.DA.DAGRPID", "OrderNumber": 5, "Mandatory": "No", "Role": "Identifier"}, {"ItemOID": "IT.DA.DAREFID", "OrderNumber": 6, "Mandatory": "No", "Role": "Identifier"}, {"ItemOID": "IT.DA.DASPID", "OrderNumber": 7, "Mandatory": "No", "Role": "Identifier"}, {"ItemOID": "IT.DA.DALNKID", "OrderNumber": 8, "Mandatory": "No", "Role": "Identifier"}, {"ItemOID": "IT.DA.DALNKGRP", "OrderNumber": 9, "Mandatory": "No", "Role": "Identifier"}, {"ItemOID": "IT.DA.DATESTCD", "OrderNumber": 10, "Mandatory": "No", "Role": "Topic"}, {"ItemOID": "IT.DA.DATEST", "OrderNumber": 11, "Mandatory": "No", "Role": "Synonym Qualifier"}, {"ItemOID": "IT.DA.DACAT", "OrderNumber": 12, "Mandatory": "No", "Role": "Grouping Qualifier"}, {"ItemOID": "IT.DA.DASCAT", "OrderNumber": 13, "Mandatory": "No", "Role": "Grouping Qualifier"}, {"ItemOID": "IT.DA.DAORRES", "OrderNumber": 14, "Mandatory": "No", "Role": "Result Qualifier"}, {"ItemOID": "IT.DA.DAORRESU", "OrderNumber": 15, "Mandatory": "No", "Role": "Variable Qualifier"}, {"ItemOID": "IT.DA.DASTRESC", "OrderNumber": 16, "Mandatory": "No", "Role": "Result Qualifier"}, {"ItemOID": "IT.DA.DASTRESN", "OrderNumber": 17, "Mandatory": "No", "Role": "Result Qualifier"}, {"ItemOID": "IT.DA.DASTRESU", "OrderNumber": 18, "Mandatory": "No", "Role": "Variable Qualifier"}, {"ItemOID": "IT.DA.DASTAT", "OrderNumber": 19, "Mandatory": "No", "Role": "Record Qualifier"}, {"ItemOID": "IT.DA.DAREASND", "OrderNumber": 20, "Mandatory": "No", "Role": "Record Qualifier"}, {"ItemOID": "IT.DA.VISITNUM", "OrderNumber": 21, "Mandatory": "No", "Role": "Timing"}, {"ItemOID": "IT.DA.VISIT", "OrderNumber": 22, "Mandatory": "No", "Role": "Timing"}, {"ItemOID": "IT.DA.VISITDY", "OrderNumber": 23, "Mandatory": "No", "Role": "Timing"}, {"ItemOID": "IT.DA.TAETORD", "OrderNumber": 24, "Mandatory": "No", "Role": "Timing"}, {"ItemOID": "IT.DA.EPOCH", "OrderNumber": 25, "Mandatory": "No", "Role": "Timing"}, {"ItemOID": "IT.DA.DADTC", "OrderNumber": 26, "Mandatory": "No", "Role": "Timing"}, {"ItemOID": "IT.DA.DADY", "OrderNumber": 27, "Mandatory": "No", "Role": "Timing"}], "Class": {"Name": "FINDINGS"}}, {"OID": "IGD.DD", "Name": "DD", "Domain": "DD", "Repeating": "No", "Purpose": "Tabulation", "Structure": "One record per finding per subject", "Description": {"TranslatedText": [{"lang": "en", "_content": "Death Details"}]}, "ItemRef": [{"ItemOID": "IT.DD.STUDYID", "OrderNumber": 1, "Mandatory": "No", "Role": "Identifier"}, {"ItemOID": "IT.DD.DOMAIN", "OrderNumber": 2, "Mandatory": "No", "Role": "Identifier"}, {"ItemOID": "IT.DD.USUBJID", "OrderNumber": 3, "Mandatory": "No", "Role": "Identifier"}, {"ItemOID": "IT.DD.DDSEQ", "OrderNumber": 4, "Mandatory": "No", "Role": "Identifier"}, {"ItemOID": "IT.DD.DDTESTCD", "OrderNumber": 5, "Mandatory": "No", "Role": "Topic"}, {"ItemOID": "IT.DD.DDTEST", "OrderNumber": 6, "Mandatory": "No", "Role": "Synonym Qualifier"}, {"ItemOID": "IT.DD.DDORRES", "OrderNumber": 7, "Mandatory": "No", "Role": "Result Qualifier"}, {"ItemOID": "IT.DD.DDSTRESC", "OrderNumber": 8, "Mandatory": "No", "Role": "Result Qualifier"}, {"ItemOID": "IT.DD.DDRESCAT", "OrderNumber": 9, "Mandatory": "No", "Role": "Variable Qualifier"}, {"ItemOID": "IT.DD.DDEVAL", "OrderNumber": 10, "Mandatory": "No", "Role": "Record Qualifier"}, {"ItemOID": "IT.DD.DDDTC", "OrderNumber": 11, "Mandatory": "No", "Role": "Timing"}, {"ItemOID": "IT.DD.DDDY", "OrderNumber": 12, "Mandatory": "No", "Role": "Timing"}], "Class": {"Name": "FINDINGS"}}, {"OID": "IGD.EG", "Name": "EG", "Domain": "EG", "Repeating": "No", "Purpose": "Tabulation", "Structure": "One record per ECG observation per replicate per time point or one record per ECG observation per beat per visit per subject", "Description": {"TranslatedText": [{"lang": "en", "_content": "ECG Test Results"}]}, "ItemRef": [{"ItemOID": "IT.EG.STUDYID", "OrderNumber": 1, "Mandatory": "No", "Role": "Identifier"}, {"ItemOID": "IT.EG.DOMAIN", "OrderNumber": 2, "Mandatory": "No", "Role": "Identifier"}, {"ItemOID": "IT.EG.USUBJID", "OrderNumber": 3, "Mandatory": "No", "Role": "Identifier"}, {"ItemOID": "IT.EG.SPDEVID", "OrderNumber": 4, "Mandatory": "No", "Role": "Identifier"}, {"ItemOID": "IT.EG.EGSEQ", "OrderNumber": 5, "Mandatory": "No", "Role": "Identifier"}, {"ItemOID": "IT.EG.EGGRPID", "OrderNumber": 6, "Mandatory": "No", "Role": "Identifier"}, {"ItemOID": "IT.EG.EGREFID", "OrderNumber": 7, "Mandatory": "No", "Role": "Identifier"}, {"ItemOID": "IT.EG.EGSPID", "OrderNumber": 8, "Mandatory": "No", "Role": "Identifier"}, {"ItemOID": "IT.EG.EGBEATNO", "OrderNumber": 9, "Mandatory": "No", "Role": "Identifier"}, {"ItemOID": "IT.EG.EGTESTCD", "OrderNumber": 10, "Mandatory": "No", "Role": "Topic"}, {"ItemOID": "IT.EG.EGTEST", "OrderNumber": 11, "Mandatory": "No", "Role": "Synonym Qualifier"}, {"ItemOID": "IT.EG.EGCAT", "OrderNumber": 12, "Mandatory": "No", "Role": "Grouping Qualifier"}, {"ItemOID": "IT.EG.EGSCAT", "OrderNumber": 13, "Mandatory": "No", "Role": "Grouping Qualifier"}, {"ItemOID": "IT.EG.EGPOS", "OrderNumber": 14, "Mandatory": "No", "Role": "Record Qualifier"}, {"ItemOID": "IT.EG.EGORRES", "OrderNumber": 15, "Mandatory": "No", "Role": "Result Qualifier"}, {"ItemOID": "IT.EG.EGORRESU", "OrderNumber": 16, "Mandatory": "No", "Role": "Variable Qualifier"}, {"ItemOID": "IT.EG.EGSTRESC", "OrderNumber": 17, "Mandatory": "No", "Role": "Result Qualifier"}, {"ItemOID": "IT.EG.EGSTRESN", "OrderNumber": 18, "Mandatory": "No", "Role": "Result Qualifier"}, {"ItemOID": "IT.EG.EGSTRESU", "OrderNumber": 19, "Mandatory": "No", "Role": "Variable Qualifier"}, {"ItemOID": "IT.EG.EGSTAT", "OrderNumber": 20, "Mandatory": "No", "Role": "Record Qualifier"}, {"ItemOID": "IT.EG.EGREASND", "OrderNumber": 21, "Mandatory": "No", "Role": "Record Qualifier"}, {"ItemOID": "IT.EG.EGXFN", "OrderNumber": 22, "Mandatory": "No", "Role": "Record Qualifier"}, {"ItemOID": "IT.EG.EGNAM", "OrderNumber": 23, "Mandatory": "No", "Role": "Record Qualifier"}, {"ItemOID": "IT.EG.EGMETHOD", "OrderNumber": 24, "Mandatory": "No", "Role": "Record Qualifier"}, {"ItemOID": "IT.EG.EGLEAD", "OrderNumber": 25, "Mandatory": "No", "Role": "Record Qualifier"}, {"ItemOID": "IT.EG.EGLOBXFL", "OrderNumber": 26, "Mandatory": "No", "Role": "Record Qualifier"}, {"ItemOID": "IT.EG.EGBLFL", "OrderNumber": 27, "Mandatory": "No", "Role": "Record Qualifier"}, {"ItemOID": "IT.EG.EGDRVFL", "OrderNumber": 28, "Mandatory": "No", "Role": "Record Qualifier"}, {"ItemOID": "IT.EG.EGEVAL", "OrderNumber": 29, "Mandatory": "No", "Role": "Record Qualifier"}, {"ItemOID": "IT.EG.EGEVALID", "OrderNumber": 30, "Mandatory": "No", "Role": "Variable Qualifier"}, {"ItemOID": "IT.EG.EGCLSIG", "OrderNumber": 31, "Mandatory": "No", "Role": "Record Qualifier"}, {"ItemOID": "IT.EG.EGREPNUM", "OrderNumber": 32, "Mandatory": "No", "Role": "Record Qualifier"}, {"ItemOID": "IT.EG.VISITNUM", "OrderNumber": 33, "Mandatory": "No", "Role": "Timing"}, {"ItemOID": "IT.EG.VISIT", "OrderNumber": 34, "Mandatory": "No", "Role": "Timing"}, {"ItemOID": "IT.EG.VISITDY", "OrderNumber": 35, "Mandatory": "No", "Role": "Timing"}, {"ItemOID": "IT.EG.TAETORD", "OrderNumber": 36, "Mandatory": "No", "Role": "Timing"}, {"ItemOID": "IT.EG.EPOCH", "OrderNumber": 37, "Mandatory": "No", "Role": "Timing"}, {"ItemOID": "IT.EG.EGDTC", "OrderNumber": 38, "Mandatory": "No", "Role": "Timing"}, {"ItemOID": "IT.EG.EGDY", "OrderNumber": 39, "Mandatory": "No", "Role": "Timing"}, {"ItemOID": "IT.EG.EGTPT", "OrderNumber": 40, "Mandatory": "No", "Role": "Timing"}, {"ItemOID": "IT.EG.EGTPTNUM", "OrderNumber": 41, "Mandatory": "No", "Role": "Timing"}, {"ItemOID": "IT.EG.EGELTM", "OrderNumber": 42, "Mandatory": "No", "Role": "Timing"}, {"ItemOID": "IT.EG.EGTPTREF", "OrderNumber": 43, "Mandatory": "No", "Role": "Timing"}, {"ItemOID": "IT.EG.EGRFTDTC", "OrderNumber": 44, "Mandatory": "No", "Role": "Timing"}], "Class": {"Name": "FINDINGS"}}, {"OID": "IGD.FT", "Name": "FT", "Domain": "FT", "Repeating": "No", "Purpose": "Tabulation", "Structure": "One record per Functional Test finding per time point per visit per subject", "Description": {"TranslatedText": [{"lang": "en", "_content": "Functional Tests"}]}, "ItemRef": [{"ItemOID": "IT.FT.STUDYID", "OrderNumber": 1, "Mandatory": "No", "Role": "Identifier"}, {"ItemOID": "IT.FT.DOMAIN", "OrderNumber": 2, "Mandatory": "No", "Role": "Identifier"}, {"ItemOID": "IT.FT.USUBJID", "OrderNumber": 3, "Mandatory": "No", "Role": "Identifier"}, {"ItemOID": "IT.FT.FTSEQ", "OrderNumber": 4, "Mandatory": "No", "Role": "Identifier"}, {"ItemOID": "IT.FT.FTGRPID", "OrderNumber": 5, "Mandatory": "No", "Role": "Identifier"}, {"ItemOID": "IT.FT.FTREFID", "OrderNumber": 6, "Mandatory": "No", "Role": "Identifier"}, {"ItemOID": "IT.FT.FTSPID", "OrderNumber": 7, "Mandatory": "No", "Role": "Identifier"}, {"ItemOID": "IT.FT.FTTESTCD", "OrderNumber": 8, "Mandatory": "No", "Role": "Topic"}, {"ItemOID": "IT.FT.FTTEST", "OrderNumber": 9, "Mandatory": "No", "Role": "Synonym Qualifier"}, {"ItemOID": "IT.FT.FTCAT", "OrderNumber": 10, "Mandatory": "No", "Role": "Grouping Qualifier"}, {"ItemOID": "IT.FT.FTSCAT", "OrderNumber": 11, "Mandatory": "No", "Role": "Grouping Qualifier"}, {"ItemOID": "IT.FT.FTPOS", "OrderNumber": 12, "Mandatory": "No", "Role": "Record Qualifier"}, {"ItemOID": "IT.FT.FTORRES", "OrderNumber": 13, "Mandatory": "No", "Role": "Result Qualifier"}, {"ItemOID": "IT.FT.FTORRESU", "OrderNumber": 14, "Mandatory": "No", "Role": "Variable Qualifier"}, {"ItemOID": "IT.FT.FTSTRESC", "OrderNumber": 15, "Mandatory": "No", "Role": "Result Qualifier"}, {"ItemOID": "IT.FT.FTSTRESN", "OrderNumber": 16, "Mandatory": "No", "Role": "Result Qualifier"}, {"ItemOID": "IT.FT.FTSTRESU", "OrderNumber": 17, "Mandatory": "No", "Role": "Variable Qualifier"}, {"ItemOID": "IT.FT.FTSTAT", "OrderNumber": 18, "Mandatory": "No", "Role": "Record Qualifier"}, {"ItemOID": "IT.FT.FTREASND", "OrderNumber": 19, "Mandatory": "No", "Role": "Record Qualifier"}, {"ItemOID": "IT.FT.FTXFN", "OrderNumber": 20, "Mandatory": "No", "Role": "Record Qualifier"}, {"ItemOID": "IT.FT.FTNAM", "OrderNumber": 21, "Mandatory": "No", "Role": "Record Qualifier"}, {"ItemOID": "IT.FT.FTMETHOD", "OrderNumber": 22, "Mandatory": "No", "Role": "Record Qualifier"}, {"ItemOID": "IT.FT.FTLOBXFL", "OrderNumber": 23, "Mandatory": "No", "Role": "Record Qualifier"}, {"ItemOID": "IT.FT.FTBLFL", "OrderNumber": 24, "Mandatory": "No", "Role": "Record Qualifier"}, {"ItemOID": "IT.FT.FTDRVFL", "OrderNumber": 25, "Mandatory": "No", "Role": "Record Qualifier"}, {"ItemOID": "IT.FT.FTREPNUM", "OrderNumber": 26, "Mandatory": "No", "Role": "Record Qualifier"}, {"ItemOID": "IT.FT.VISITNUM", "OrderNumber": 27, "Mandatory": "No", "Role": "Timing"}, {"ItemOID": "IT.FT.VISIT", "OrderNumber": 28, "Mandatory": "No", "Role": "Timing"}, {"ItemOID": "IT.FT.VISITDY", "OrderNumber": 29, "Mandatory": "No", "Role": "Timing"}, {"ItemOID": "IT.FT.TAETORD", "OrderNumber": 30, "Mandatory": "No", "Role": "Timing"}, {"ItemOID": "IT.FT.EPOCH", "OrderNumber": 31, "Mandatory": "No", "Role": "Timing"}, {"ItemOID": "IT.FT.FTDTC", "OrderNumber": 32, "Mandatory": "No", "Role": "Timing"}, {"ItemOID": "IT.FT.FTDY", "OrderNumber": 33, "Mandatory": "No", "Role": "Timing"}, {"ItemOID": "IT.FT.FTTPT", "OrderNumber": 34, "Mandatory": "No", "Role": "Timing"}, {"ItemOID": "IT.FT.FTTPTNUM", "OrderNumber": 35, "Mandatory": "No", "Role": "Timing"}, {"ItemOID": "IT.FT.FTELTM", "OrderNumber": 36, "Mandatory": "No", "Role": "Timing"}, {"ItemOID": "IT.FT.FTTPTREF", "OrderNumber": 37, "Mandatory": "No", "Role": "Timing"}, {"ItemOID": "IT.FT.FTRFTDTC", "OrderNumber": 38, "Mandatory": "No", "Role": "Timing"}], "Class": {"Name": "FINDINGS"}}, {"OID": "IGD.GF", "Name": "GF", "Domain": "GF", "Repeating": "No", "Purpose": "Tabulation", "Structure": "One record per finding per observation per biospecimen per subject", "Description": {"TranslatedText": [{"lang": "en", "_content": "Genomics Findings"}]}, "ItemRef": [{"ItemOID": "IT.GF.STUDYID", "OrderNumber": 1, "Mandatory": "No", "Role": "Identifier"}, {"ItemOID": "IT.GF.DOMAIN", "OrderNumber": 2, "Mandatory": "No", "Role": "Identifier"}, {"ItemOID": "IT.GF.USUBJID", "OrderNumber": 3, "Mandatory": "No", "Role": "Identifier"}, {"ItemOID": "IT.GF.SPDEVID", "OrderNumber": 4, "Mandatory": "No", "Role": "Identifier"}, {"ItemOID": "IT.GF.NHOID", "OrderNumber": 5, "Mandatory": "No", "Role": "Identifier"}, {"ItemOID": "IT.GF.GFSEQ", "OrderNumber": 6, "Mandatory": "No", "Role": "Identifier"}, {"ItemOID": "IT.GF.GFGRPID", "OrderNumber": 7, "Mandatory": "No", "Role": "Identifier"}, {"ItemOID": "IT.GF.GFREFID", "OrderNumber": 8, "Mandatory": "No", "Role": "Identifier"}, {"ItemOID": "IT.GF.GFSPID", "OrderNumber": 9, "Mandatory": "No", "Role": "Identifier"}, {"ItemOID": "IT.GF.GFLNKID", "OrderNumber": 10, "Mandatory": "No", "Role": "Identifier"}, {"ItemOID": "IT.GF.GFLNKGRP", "OrderNumber": 11, "Mandatory": "No", "Role": "Identifier"}, {"ItemOID": "IT.GF.GFTESTCD", "OrderNumber": 12, "Mandatory": "No", "Role": "Topic"}, {"ItemOID": "IT.GF.GFTEST", "OrderNumber": 13, "Mandatory": "No", "Role": "Synonym Qualifier"}, {"ItemOID": "IT.GF.GFTSTDTL", "OrderNumber": 14, "Mandatory": "No", "Role": "Variable Qualifier"}, {"ItemOID": "IT.GF.GFCAT", "OrderNumber": 15, "Mandatory": "No", "Role": "Grouping Qualifier"}, {"ItemOID": "IT.GF.GFSCAT", "OrderNumber": 16, "Mandatory": "No", "Role": "Grouping Qualifier"}, {"ItemOID": "IT.GF.GFORRES", "OrderNumber": 17, "Mandatory": "No", "Role": "Result Qualifier"}, {"ItemOID": "IT.GF.GFORRESU", "OrderNumber": 18, "Mandatory": "No", "Role": "Variable Qualifier"}, {"ItemOID": "IT.GF.GFORREF", "OrderNumber": 19, "Mandatory": "No", "Role": "Variable Qualifier"}, {"ItemOID": "IT.GF.GFSTRESC", "OrderNumber": 20, "Mandatory": "No", "Role": "Result Qualifier"}, {"ItemOID": "IT.GF.GFSTRESN", "OrderNumber": 21, "Mandatory": "No", "Role": "Result Qualifier"}, {"ItemOID": "IT.GF.GFSTRESU", "OrderNumber": 22, "Mandatory": "No", "Role": "Variable Qualifier"}, {"ItemOID": "IT.GF.GFSTREFC", "OrderNumber": 23, "Mandatory": "No", "Role": "Variable Qualifier"}, {"ItemOID": "IT.GF.GFSTREFN", "OrderNumber": 24, "Mandatory": "No", "Role": "Variable Qualifier"}, {"ItemOID": "IT.GF.GFRESCAT", "OrderNumber": 25, "Mandatory": "No", "Role": "Variable Qualifier"}, {"ItemOID": "IT.GF.GFINHERT", "OrderNumber": 26, "Mandatory": "No", "Role": "Variable Qualifier"}, {"ItemOID": "IT.GF.GFGENREF", "OrderNumber": 27, "Mandatory": "No", "Role": "Variable Qualifier"}, {"ItemOID": "IT.GF.GFCHROM", "OrderNumber": 28, "Mandatory": "No", "Role": "Variable Qualifier"}, {"ItemOID": "IT.GF.GFSYM", "OrderNumber": 29, "Mandatory": "No", "Role": "Variable Qualifier"}, {"ItemOID": "IT.GF.GFSYMTYP", "OrderNumber": 30, "Mandatory": "No", "Role": "Variable Qualifier"}, {"ItemOID": "IT.GF.GFGENLOC", "OrderNumber": 31, "Mandatory": "No", "Role": "Variable Qualifier"}, {"ItemOID": "IT.GF.GFGENSR", "OrderNumber": 32, "Mandatory": "No", "Role": "Variable Qualifier"}, {"ItemOID": "IT.GF.GFSEQID", "OrderNumber": 33, "Mandatory": "No", "Role": "Variable Qualifier"}, {"ItemOID": "IT.GF.GFPVRID", "OrderNumber": 34, "Mandatory": "No", "Role": "Variable Qualifier"}, {"ItemOID": "IT.GF.GFCOPYID", "OrderNumber": 35, "Mandatory": "No", "Role": "Variable Qualifier"}, {"ItemOID": "IT.GF.GFSTAT", "OrderNumber": 36, "Mandatory": "No", "Role": "Record Qualifier"}, {"ItemOID": "IT.GF.GFREASND", "OrderNumber": 37, "Mandatory": "No", "Role": "Record Qualifier"}, {"ItemOID": "IT.GF.GFXFN", "OrderNumber": 38, "Mandatory": "No", "Role": "Record Qualifier"}, {"ItemOID": "IT.GF.GFNAM", "OrderNumber": 39, "Mandatory": "No", "Role": "Record Qualifier"}, {"ItemOID": "IT.GF.GFSPEC", "OrderNumber": 40, "Mandatory": "No", "Role": "Record Qualifier"}, {"ItemOID": "IT.GF.GFMETHOD", "OrderNumber": 41, "Mandatory": "No", "Role": "Record Qualifier"}, {"ItemOID": "IT.GF.GFRUNID", "OrderNumber": 42, "Mandatory": "No", "Role": "Record Qualifier"}, {"ItemOID": "IT.GF.GFANMETH", "OrderNumber": 43, "Mandatory": "No", "Role": "Record Qualifier"}, {"ItemOID": "IT.GF.GFBLFL", "OrderNumber": 44, "Mandatory": "No", "Role": "Record Qualifier"}, {"ItemOID": "IT.GF.GFDRVFL", "OrderNumber": 45, "Mandatory": "No", "Role": "Record Qualifier"}, {"ItemOID": "IT.GF.GFLLOQ", "OrderNumber": 46, "Mandatory": "No", "Role": "Variable Qualifier"}, {"ItemOID": "IT.GF.GFREPNUM", "OrderNumber": 47, "Mandatory": "No", "Role": "Record Qualifier"}, {"ItemOID": "IT.GF.VISITNUM", "OrderNumber": 48, "Mandatory": "No", "Role": "Timing"}, {"ItemOID": "IT.GF.VISIT", "OrderNumber": 49, "Mandatory": "No", "Role": "Timing"}, {"ItemOID": "IT.GF.VISITDY", "OrderNumber": 50, "Mandatory": "No", "Role": "Timing"}, {"ItemOID": "IT.GF.GFDTC", "OrderNumber": 51, "Mandatory": "No", "Role": "Timing"}, {"ItemOID": "IT.GF.GFDY", "OrderNumber": 52, "Mandatory": "No", "Role": "Timing"}, {"ItemOID": "IT.GF.GFTPT", "OrderNumber": 53, "Mandatory": "No", "Role": "Timing"}, {"ItemOID": "IT.GF.GFTPTNUM", "OrderNumber": 54, "Mandatory": "No", "Role": "Timing"}, {"ItemOID": "IT.GF.GFELTM", "OrderNumber": 55, "Mandatory": "No", "Role": "Timing"}, {"ItemOID": "IT.GF.GFTPTREF", "OrderNumber": 56, "Mandatory": "No", "Role": "Timing"}, {"ItemOID": "IT.GF.GFRFTDTC", "OrderNumber": 57, "Mandatory": "No", "Role": "Timing"}], "Class": {"Name": "FINDINGS"}}, {"OID": "IGD.IE", "Name": "IE", "Domain": "IE", "Repeating": "No", "Purpose": "Tabulation", "Structure": "One record per inclusion/exclusion criterion not met per subject", "Description": {"TranslatedText": [{"lang": "en", "_content": "Inclusion/Exclusion Criteria Not Met"}]}, "ItemRef": [{"ItemOID": "IT.IE.STUDYID", "OrderNumber": 1, "Mandatory": "No", "Role": "Identifier"}, {"ItemOID": "IT.IE.DOMAIN", "OrderNumber": 2, "Mandatory": "No", "Role": "Identifier"}, {"ItemOID": "IT.IE.USUBJID", "OrderNumber": 3, "Mandatory": "No", "Role": "Identifier"}, {"ItemOID": "IT.IE.IESEQ", "OrderNumber": 4, "Mandatory": "No", "Role": "Identifier"}, {"ItemOID": "IT.IE.IESPID", "OrderNumber": 5, "Mandatory": "No", "Role": "Identifier"}, {"ItemOID": "IT.IE.IETESTCD", "OrderNumber": 6, "Mandatory": "No", "Role": "Topic"}, {"ItemOID": "IT.IE.IETEST", "OrderNumber": 7, "Mandatory": "No", "Role": "Synonym Qualifier"}, {"ItemOID": "IT.IE.IECAT", "OrderNumber": 8, "Mandatory": "No", "Role": "Grouping Qualifier"}, {"ItemOID": "IT.IE.IESCAT", "OrderNumber": 9, "Mandatory": "No", "Role": "Grouping Qualifier"}, {"ItemOID": "IT.IE.IEORRES", "OrderNumber": 10, "Mandatory": "No", "Role": "Result Qualifier"}, {"ItemOID": "IT.IE.IESTRESC", "OrderNumber": 11, "Mandatory": "No", "Role": "Result Qualifier"}, {"ItemOID": "IT.IE.VISITNUM", "OrderNumber": 12, "Mandatory": "No", "Role": "Timing"}, {"ItemOID": "IT.IE.VISIT", "OrderNumber": 13, "Mandatory": "No", "Role": "Timing"}, {"ItemOID": "IT.IE.VISITDY", "OrderNumber": 14, "Mandatory": "No", "Role": "Timing"}, {"ItemOID": "IT.IE.TAETORD", "OrderNumber": 15, "Mandatory": "No", "Role": "Timing"}, {"ItemOID": "IT.IE.EPOCH", "OrderNumber": 16, "Mandatory": "No", "Role": "Timing"}, {"ItemOID": "IT.IE.IEDTC", "OrderNumber": 17, "Mandatory": "No", "Role": "Timing"}, {"ItemOID": "IT.IE.IEDY", "OrderNumber": 18, "Mandatory": "No", "Role": "Timing"}], "Class": {"Name": "FINDINGS"}}, {"OID": "IGD.IS", "Name": "IS", "Domain": "IS", "Repeating": "No", "Purpose": "Tabulation", "Structure": "One record per test per visit per subject", "Description": {"TranslatedText": [{"lang": "en", "_content": "Immunogenicity Specimen Assessments"}]}, "ItemRef": [{"ItemOID": "IT.IS.STUDYID", "OrderNumber": 1, "Mandatory": "No", "Role": "Identifier"}, {"ItemOID": "IT.IS.DOMAIN", "OrderNumber": 2, "Mandatory": "No", "Role": "Identifier"}, {"ItemOID": "IT.IS.USUBJID", "OrderNumber": 3, "Mandatory": "No", "Role": "Identifier"}, {"ItemOID": "IT.IS.NHOID", "OrderNumber": 4, "Mandatory": "No", "Role": "Identifier"}, {"ItemOID": "IT.IS.ISSEQ", "OrderNumber": 5, "Mandatory": "No", "Role": "Identifier"}, {"ItemOID": "IT.IS.ISGRPID", "OrderNumber": 6, "Mandatory": "No", "Role": "Identifier"}, {"ItemOID": "IT.IS.ISREFID", "OrderNumber": 7, "Mandatory": "No", "Role": "Identifier"}, {"ItemOID": "IT.IS.ISSPID", "OrderNumber": 8, "Mandatory": "No", "Role": "Identifier"}, {"ItemOID": "IT.IS.ISTESTCD", "OrderNumber": 9, "Mandatory": "No", "Role": "Topic"}, {"ItemOID": "IT.IS.ISTEST", "OrderNumber": 10, "Mandatory": "No", "Role": "Synonym Qualifier"}, {"ItemOID": "IT.IS.ISTSTCND", "OrderNumber": 11, "Mandatory": "No", "Role": "Variable Qualifier"}, {"ItemOID": "IT.IS.ISCNDAGT", "OrderNumber": 12, "Mandatory": "No", "Role": "Record Qualifier"}, {"ItemOID": "IT.IS.ISBDAGNT", "OrderNumber": 13, "Mandatory": "No", "Role": "Variable Qualifier"}, {"ItemOID": "IT.IS.ISTSTOPO", "OrderNumber": 14, "Mandatory": "No", "Role": "Variable Qualifier"}, {"ItemOID": "IT.IS.ISMSCBCE", "OrderNumber": 15, "Mandatory": "No", "Role": "Variable Qualifier"}, {"ItemOID": "IT.IS.ISTSTDTL", "OrderNumber": 16, "Mandatory": "No", "Role": "Variable Qualifier"}, {"ItemOID": "IT.IS.ISCAT", "OrderNumber": 17, "Mandatory": "No", "Role": "Grouping Qualifier"}, {"ItemOID": "IT.IS.ISSCAT", "OrderNumber": 18, "Mandatory": "No", "Role": "Grouping Qualifier"}, {"ItemOID": "IT.IS.ISORRES", "OrderNumber": 19, "Mandatory": "No", "Role": "Result Qualifier"}, {"ItemOID": "IT.IS.ISORRESU", "OrderNumber": 20, "Mandatory": "No", "Role": "Variable Qualifier"}, {"ItemOID": "IT.IS.ISORNRLO", "OrderNumber": 21, "Mandatory": "No", "Role": "Variable Qualifier"}, {"ItemOID": "IT.IS.ISORNRHI", "OrderNumber": 22, "Mandatory": "No", "Role": "Variable Qualifier"}, {"ItemOID": "IT.IS.ISSTRESC", "OrderNumber": 23, "Mandatory": "No", "Role": "Result Qualifier"}, {"ItemOID": "IT.IS.ISSTRESN", "OrderNumber": 24, "Mandatory": "No", "Role": "Result Qualifier"}, {"ItemOID": "IT.IS.ISSTRESU", "OrderNumber": 25, "Mandatory": "No", "Role": "Variable Qualifier"}, {"ItemOID": "IT.IS.ISSTNRLO", "OrderNumber": 26, "Mandatory": "No", "Role": "Variable Qualifier"}, {"ItemOID": "IT.IS.ISSTNRHI", "OrderNumber": 27, "Mandatory": "No", "Role": "Variable Qualifier"}, {"ItemOID": "IT.IS.ISSTNRC", "OrderNumber": 28, "Mandatory": "No", "Role": "Variable Qualifier"}, {"ItemOID": "IT.IS.ISNRIND", "OrderNumber": 29, "Mandatory": "No", "Role": "Variable Qualifier"}, {"ItemOID": "IT.IS.ISSTAT", "OrderNumber": 30, "Mandatory": "No", "Role": "Record Qualifier"}, {"ItemOID": "IT.IS.ISREASND", "OrderNumber": 31, "Mandatory": "No", "Role": "Record Qualifier"}, {"ItemOID": "IT.IS.ISNAM", "OrderNumber": 32, "Mandatory": "No", "Role": "Record Qualifier"}, {"ItemOID": "IT.IS.ISSPEC", "OrderNumber": 33, "Mandatory": "No", "Role": "Record Qualifier"}, {"ItemOID": "IT.IS.ISSPCCND", "OrderNumber": 34, "Mandatory": "No", "Role": "Record Qualifier"}, {"ItemOID": "IT.IS.ISSPCUFL", "OrderNumber": 35, "Mandatory": "No", "Role": "Record Qualifier"}, {"ItemOID": "IT.IS.ISMETHOD", "OrderNumber": 36, "Mandatory": "No", "Role": "Record Qualifier"}, {"ItemOID": "IT.IS.ISLOBXFL", "OrderNumber": 37, "Mandatory": "No", "Role": "Record Qualifier"}, {"ItemOID": "IT.IS.ISBLFL", "OrderNumber": 38, "Mandatory": "No", "Role": "Record Qualifier"}, {"ItemOID": "IT.IS.ISDRVFL", "OrderNumber": 39, "Mandatory": "No", "Role": "Record Qualifier"}, {"ItemOID": "IT.IS.ISLLOQ", "OrderNumber": 40, "Mandatory": "No", "Role": "Variable Qualifier"}, {"ItemOID": "IT.IS.VISITNUM", "OrderNumber": 41, "Mandatory": "No", "Role": "Timing"}, {"ItemOID": "IT.IS.VISIT", "OrderNumber": 42, "Mandatory": "No", "Role": "Timing"}, {"ItemOID": "IT.IS.VISITDY", "OrderNumber": 43, "Mandatory": "No", "Role": "Timing"}, {"ItemOID": "IT.IS.TAETORD", "OrderNumber": 44, "Mandatory": "No", "Role": "Timing"}, {"ItemOID": "IT.IS.EPOCH", "OrderNumber": 45, "Mandatory": "No", "Role": "Timing"}, {"ItemOID": "IT.IS.ISDTC", "OrderNumber": 46, "Mandatory": "No", "Role": "Timing"}, {"ItemOID": "IT.IS.ISENDTC", "OrderNumber": 47, "Mandatory": "No", "Role": "Timing"}, {"ItemOID": "IT.IS.ISDY", "OrderNumber": 48, "Mandatory": "No", "Role": "Timing"}, {"ItemOID": "IT.IS.ISENDY", "OrderNumber": 49, "Mandatory": "No", "Role": "Timing"}, {"ItemOID": "IT.IS.ISTPT", "OrderNumber": 50, "Mandatory": "No", "Role": "Timing"}, {"ItemOID": "IT.IS.ISTPTNUM", "OrderNumber": 51, "Mandatory": "No", "Role": "Timing"}, {"ItemOID": "IT.IS.ISELTM", "OrderNumber": 52, "Mandatory": "No", "Role": "Timing"}, {"ItemOID": "IT.IS.ISTPTREF", "OrderNumber": 53, "Mandatory": "No", "Role": "Timing"}, {"ItemOID": "IT.IS.ISRFTDTC", "OrderNumber": 54, "Mandatory": "No", "Role": "Timing"}], "Class": {"Name": "FINDINGS"}}, {"OID": "IGD.LB", "Name": "LB", "Domain": "LB", "Repeating": "No", "Purpose": "Tabulation", "Structure": "One record per lab test per time point per visit per subject", "Description": {"TranslatedText": [{"lang": "en", "_content": "Laboratory Test Results"}]}, "ItemRef": [{"ItemOID": "IT.LB.STUDYID", "OrderNumber": 1, "Mandatory": "No", "Role": "Identifier"}, {"ItemOID": "IT.LB.DOMAIN", "OrderNumber": 2, "Mandatory": "No", "Role": "Identifier"}, {"ItemOID": "IT.LB.USUBJID", "OrderNumber": 3, "Mandatory": "No", "Role": "Identifier"}, {"ItemOID": "IT.LB.LBSEQ", "OrderNumber": 4, "Mandatory": "No", "Role": "Identifier"}, {"ItemOID": "IT.LB.LBGRPID", "OrderNumber": 5, "Mandatory": "No", "Role": "Identifier"}, {"ItemOID": "IT.LB.LBREFID", "OrderNumber": 6, "Mandatory": "No", "Role": "Identifier"}, {"ItemOID": "IT.LB.LBSPID", "OrderNumber": 7, "Mandatory": "No", "Role": "Identifier"}, {"ItemOID": "IT.LB.LBTESTCD", "OrderNumber": 8, "Mandatory": "No", "Role": "Topic"}, {"ItemOID": "IT.LB.LBTEST", "OrderNumber": 9, "Mandatory": "No", "Role": "Synonym Qualifier"}, {"ItemOID": "IT.LB.LBTSTCND", "OrderNumber": 10, "Mandatory": "No", "Role": "Variable Qualifier"}, {"ItemOID": "IT.LB.LBBDAGNT", "OrderNumber": 11, "Mandatory": "No", "Role": "Variable Qualifier"}, {"ItemOID": "IT.LB.LBTSTOPO", "OrderNumber": 12, "Mandatory": "No", "Role": "Variable Qualifier"}, {"ItemOID": "IT.LB.LBCAT", "OrderNumber": 13, "Mandatory": "No", "Role": "Grouping Qualifier"}, {"ItemOID": "IT.LB.LBSCAT", "OrderNumber": 14, "Mandatory": "No", "Role": "Grouping Qualifier"}, {"ItemOID": "IT.LB.LBORRES", "OrderNumber": 15, "Mandatory": "No", "Role": "Result Qualifier"}, {"ItemOID": "IT.LB.LBORRESU", "OrderNumber": 16, "Mandatory": "No", "Role": "Variable Qualifier"}, {"ItemOID": "IT.LB.LBRESSCL", "OrderNumber": 17, "Mandatory": "No", "Role": "Record Qualifier"}, {"ItemOID": "IT.LB.LBRESTYP", "OrderNumber": 18, "Mandatory": "No", "Role": "Record Qualifier"}, {"ItemOID": "IT.LB.LBCOLSRT", "OrderNumber": 19, "Mandatory": "No", "Role": "Record Qualifier"}, {"ItemOID": "IT.LB.LBORNRLO", "OrderNumber": 20, "Mandatory": "No", "Role": "Variable Qualifier"}, {"ItemOID": "IT.LB.LBORNRHI", "OrderNumber": 21, "Mandatory": "No", "Role": "Variable Qualifier"}, {"ItemOID": "IT.LB.LBLLOD", "OrderNumber": 22, "Mandatory": "No", "Role": "Variable Qualifier"}, {"ItemOID": "IT.LB.LBSTRESC", "OrderNumber": 23, "Mandatory": "No", "Role": "Result Qualifier"}, {"ItemOID": "IT.LB.LBSTRESN", "OrderNumber": 24, "Mandatory": "No", "Role": "Result Qualifier"}, {"ItemOID": "IT.LB.LBSTRESU", "OrderNumber": 25, "Mandatory": "No", "Role": "Variable Qualifier"}, {"ItemOID": "IT.LB.LBSTNRLO", "OrderNumber": 26, "Mandatory": "No", "Role": "Variable Qualifier"}, {"ItemOID": "IT.LB.LBSTNRHI", "OrderNumber": 27, "Mandatory": "No", "Role": "Variable Qualifier"}, {"ItemOID": "IT.LB.LBSTNRC", "OrderNumber": 28, "Mandatory": "No", "Role": "Variable Qualifier"}, {"ItemOID": "IT.LB.LBNRIND", "OrderNumber": 29, "Mandatory": "No", "Role": "Variable Qualifier"}, {"ItemOID": "IT.LB.LBSTAT", "OrderNumber": 30, "Mandatory": "No", "Role": "Record Qualifier"}, {"ItemOID": "IT.LB.LBREASND", "OrderNumber": 31, "Mandatory": "No", "Role": "Record Qualifier"}, {"ItemOID": "IT.LB.LBNAM", "OrderNumber": 32, "Mandatory": "No", "Role": "Record Qualifier"}, {"ItemOID": "IT.LB.LBLOINC", "OrderNumber": 33, "Mandatory": "No", "Role": "Synonym Qualifier"}, {"ItemOID": "IT.LB.LBSPEC", "OrderNumber": 34, "Mandatory": "No", "Role": "Record Qualifier"}, {"ItemOID": "IT.LB.LBSPCCND", "OrderNumber": 35, "Mandatory": "No", "Role": "Record Qualifier"}, {"ItemOID": "IT.LB.LBSPCUFL", "OrderNumber": 36, "Mandatory": "No", "Role": "Record Qualifier"}, {"ItemOID": "IT.LB.LBMETHOD", "OrderNumber": 37, "Mandatory": "No", "Role": "Record Qualifier"}, {"ItemOID": "IT.LB.LBANMETH", "OrderNumber": 38, "Mandatory": "No", "Role": "Record Qualifier"}, {"ItemOID": "IT.LB.LBTMTHSN", "OrderNumber": 39, "Mandatory": "No", "Role": "Record Qualifier"}, {"ItemOID": "IT.LB.LBLOBXFL", "OrderNumber": 40, "Mandatory": "No", "Role": "Record Qualifier"}, {"ItemOID": "IT.LB.LBBLFL", "OrderNumber": 41, "Mandatory": "No", "Role": "Record Qualifier"}, {"ItemOID": "IT.LB.LBFAST", "OrderNumber": 42, "Mandatory": "No", "Role": "Record Qualifier"}, {"ItemOID": "IT.LB.LBDRVFL", "OrderNumber": 43, "Mandatory": "No", "Role": "Record Qualifier"}, {"ItemOID": "IT.LB.LBTOX", "OrderNumber": 44, "Mandatory": "No", "Role": "Variable Qualifier"}, {"ItemOID": "IT.LB.LBTOXGR", "OrderNumber": 45, "Mandatory": "No", "Role": "Record Qualifier"}, {"ItemOID": "IT.LB.LBCLSIG", "OrderNumber": 46, "Mandatory": "No", "Role": "Record Qualifier"}, {"ItemOID": "IT.LB.VISITNUM", "OrderNumber": 47, "Mandatory": "No", "Role": "Timing"}, {"ItemOID": "IT.LB.VISIT", "OrderNumber": 48, "Mandatory": "No", "Role": "Timing"}, {"ItemOID": "IT.LB.VISITDY", "OrderNumber": 49, "Mandatory": "No", "Role": "Timing"}, {"ItemOID": "IT.LB.TAETORD", "OrderNumber": 50, "Mandatory": "No", "Role": "Timing"}, {"ItemOID": "IT.LB.EPOCH", "OrderNumber": 51, "Mandatory": "No", "Role": "Timing"}, {"ItemOID": "IT.LB.LBDTC", "OrderNumber": 52, "Mandatory": "No", "Role": "Timing"}, {"ItemOID": "IT.LB.LBENDTC", "OrderNumber": 53, "Mandatory": "No", "Role": "Timing"}, {"ItemOID": "IT.LB.LBDY", "OrderNumber": 54, "Mandatory": "No", "Role": "Timing"}, {"ItemOID": "IT.LB.LBENDY", "OrderNumber": 55, "Mandatory": "No", "Role": "Timing"}, {"ItemOID": "IT.LB.LBTPT", "OrderNumber": 56, "Mandatory": "No", "Role": "Timing"}, {"ItemOID": "IT.LB.LBTPTNUM", "OrderNumber": 57, "Mandatory": "No", "Role": "Timing"}, {"ItemOID": "IT.LB.LBELTM", "OrderNumber": 58, "Mandatory": "No", "Role": "Timing"}, {"ItemOID": "IT.LB.LBTPTREF", "OrderNumber": 59, "Mandatory": "No", "Role": "Timing"}, {"ItemOID": "IT.LB.LBRFTDTC", "OrderNumber": 60, "Mandatory": "No", "Role": "Timing"}, {"ItemOID": "IT.LB.LBPTFL", "OrderNumber": 61, "Mandatory": "No", "Role": "Timing"}, {"ItemOID": "IT.LB.LBPDUR", "OrderNumber": 62, "Mandatory": "No", "Role": "Timing"}], "Class": {"Name": "FINDINGS"}}, {"OID": "IGD.MB", "Name": "MB", "Domain": "MB", "Repeating": "No", "Purpose": "Tabulation", "Structure": "One record per microbiology specimen finding per time point per visit per subject", "Description": {"TranslatedText": [{"lang": "en", "_content": "Microbiology Specimen"}]}, "ItemRef": [{"ItemOID": "IT.MB.STUDYID", "OrderNumber": 1, "Mandatory": "No", "Role": "Identifier"}, {"ItemOID": "IT.MB.DOMAIN", "OrderNumber": 2, "Mandatory": "No", "Role": "Identifier"}, {"ItemOID": "IT.MB.USUBJID", "OrderNumber": 3, "Mandatory": "No", "Role": "Identifier"}, {"ItemOID": "IT.MB.FOCID", "OrderNumber": 4, "Mandatory": "No", "Role": "Identifier"}, {"ItemOID": "IT.MB.MBSEQ", "OrderNumber": 5, "Mandatory": "No", "Role": "Identifier"}, {"ItemOID": "IT.MB.MBGRPID", "OrderNumber": 6, "Mandatory": "No", "Role": "Identifier"}, {"ItemOID": "IT.MB.MBREFID", "OrderNumber": 7, "Mandatory": "No", "Role": "Identifier"}, {"ItemOID": "IT.MB.MBSPID", "OrderNumber": 8, "Mandatory": "No", "Role": "Identifier"}, {"ItemOID": "IT.MB.MBLNKID", "OrderNumber": 9, "Mandatory": "No", "Role": "Identifier"}, {"ItemOID": "IT.MB.MBLNKGRP", "OrderNumber": 10, "Mandatory": "No", "Role": "Identifier"}, {"ItemOID": "IT.MB.MBTESTCD", "OrderNumber": 11, "Mandatory": "No", "Role": "Topic"}, {"ItemOID": "IT.MB.MBTEST", "OrderNumber": 12, "Mandatory": "No", "Role": "Synonym Qualifier"}, {"ItemOID": "IT.MB.MBTSTDTL", "OrderNumber": 13, "Mandatory": "No", "Role": "Variable Qualifier"}, {"ItemOID": "IT.MB.MBCAT", "OrderNumber": 14, "Mandatory": "No", "Role": "Grouping Qualifier"}, {"ItemOID": "IT.MB.MBSCAT", "OrderNumber": 15, "Mandatory": "No", "Role": "Grouping Qualifier"}, {"ItemOID": "IT.MB.MBORRES", "OrderNumber": 16, "Mandatory": "No", "Role": "Result Qualifier"}, {"ItemOID": "IT.MB.MBORRESU", "OrderNumber": 17, "Mandatory": "No", "Role": "Variable Qualifier"}, {"ItemOID": "IT.MB.MBSTRESC", "OrderNumber": 18, "Mandatory": "No", "Role": "Result Qualifier"}, {"ItemOID": "IT.MB.MBSTRESN", "OrderNumber": 19, "Mandatory": "No", "Role": "Result Qualifier"}, {"ItemOID": "IT.MB.MBSTRESU", "OrderNumber": 20, "Mandatory": "No", "Role": "Variable Qualifier"}, {"ItemOID": "IT.MB.MBRESCAT", "OrderNumber": 21, "Mandatory": "No", "Role": "Variable Qualifier"}, {"ItemOID": "IT.MB.MBSTAT", "OrderNumber": 22, "Mandatory": "No", "Role": "Record Qualifier"}, {"ItemOID": "IT.MB.MBREASND", "OrderNumber": 23, "Mandatory": "No", "Role": "Record Qualifier"}, {"ItemOID": "IT.MB.MBNAM", "OrderNumber": 24, "Mandatory": "No", "Role": "Record Qualifier"}, {"ItemOID": "IT.MB.MBLOINC", "OrderNumber": 25, "Mandatory": "No", "Role": "Synonym Qualifier"}, {"ItemOID": "IT.MB.MBSPEC", "OrderNumber": 26, "Mandatory": "No", "Role": "Record Qualifier"}, {"ItemOID": "IT.MB.MBSPCCND", "OrderNumber": 27, "Mandatory": "No", "Role": "Record Qualifier"}, {"ItemOID": "IT.MB.MBLOC", "OrderNumber": 28, "Mandatory": "No", "Role": "Record Qualifier"}, {"ItemOID": "IT.MB.MBLAT", "OrderNumber": 29, "Mandatory": "No", "Role": "Variable Qualifier"}, {"ItemOID": "IT.MB.MBDIR", "OrderNumber": 30, "Mandatory": "No", "Role": "Variable Qualifier"}, {"ItemOID": "IT.MB.MBMETHOD", "OrderNumber": 31, "Mandatory": "No", "Role": "Record Qualifier"}, {"ItemOID": "IT.MB.MBLOBXFL", "OrderNumber": 32, "Mandatory": "No", "Role": "Record Qualifier"}, {"ItemOID": "IT.MB.MBBLFL", "OrderNumber": 33, "Mandatory": "No", "Role": "Record Qualifier"}, {"ItemOID": "IT.MB.MBFAST", "OrderNumber": 34, "Mandatory": "No", "Role": "Record Qualifier"}, {"ItemOID": "IT.MB.MBDRVFL", "OrderNumber": 35, "Mandatory": "No", "Role": "Record Qualifier"}, {"ItemOID": "IT.MB.VISITNUM", "OrderNumber": 36, "Mandatory": "No", "Role": "Timing"}, {"ItemOID": "IT.MB.VISIT", "OrderNumber": 37, "Mandatory": "No", "Role": "Timing"}, {"ItemOID": "IT.MB.VISITDY", "OrderNumber": 38, "Mandatory": "No", "Role": "Timing"}, {"ItemOID": "IT.MB.TAETORD", "OrderNumber": 39, "Mandatory": "No", "Role": "Timing"}, {"ItemOID": "IT.MB.EPOCH", "OrderNumber": 40, "Mandatory": "No", "Role": "Timing"}, {"ItemOID": "IT.MB.MBDTC", "OrderNumber": 41, "Mandatory": "No", "Role": "Timing"}, {"ItemOID": "IT.MB.MBDY", "OrderNumber": 42, "Mandatory": "No", "Role": "Timing"}, {"ItemOID": "IT.MB.MBTPT", "OrderNumber": 43, "Mandatory": "No", "Role": "Timing"}, {"ItemOID": "IT.MB.MBTPTNUM", "OrderNumber": 44, "Mandatory": "No", "Role": "Timing"}, {"ItemOID": "IT.MB.MBELTM", "OrderNumber": 45, "Mandatory": "No", "Role": "Timing"}, {"ItemOID": "IT.MB.MBTPTREF", "OrderNumber": 46, "Mandatory": "No", "Role": "Timing"}, {"ItemOID": "IT.MB.MBRFTDTC", "OrderNumber": 47, "Mandatory": "No", "Role": "Timing"}], "Class": {"Name": "FINDINGS"}}, {"OID": "IGD.MI", "Name": "MI", "Domain": "MI", "Repeating": "No", "Purpose": "Tabulation", "Structure": "One record per finding per specimen per subject", "Description": {"TranslatedText": [{"lang": "en", "_content": "Microscopic Findings"}]}, "ItemRef": [{"ItemOID": "IT.MI.STUDYID", "OrderNumber": 1, "Mandatory": "No", "Role": "Identifier"}, {"ItemOID": "IT.MI.DOMAIN", "OrderNumber": 2, "Mandatory": "No", "Role": "Identifier"}, {"ItemOID": "IT.MI.USUBJID", "OrderNumber": 3, "Mandatory": "No", "Role": "Identifier"}, {"ItemOID": "IT.MI.MISEQ", "OrderNumber": 4, "Mandatory": "No", "Role": "Identifier"}, {"ItemOID": "IT.MI.MIGRPID", "OrderNumber": 5, "Mandatory": "No", "Role": "Identifier"}, {"ItemOID": "IT.MI.MIREFID", "OrderNumber": 6, "Mandatory": "No", "Role": "Identifier"}, {"ItemOID": "IT.MI.MISPID", "OrderNumber": 7, "Mandatory": "No", "Role": "Identifier"}, {"ItemOID": "IT.MI.MITESTCD", "OrderNumber": 8, "Mandatory": "No", "Role": "Topic"}, {"ItemOID": "IT.MI.MITEST", "OrderNumber": 9, "Mandatory": "No", "Role": "Synonym Qualifier"}, {"ItemOID": "IT.MI.MITSTDTL", "OrderNumber": 10, "Mandatory": "No", "Role": "Record Qualifier"}, {"ItemOID": "IT.MI.MICAT", "OrderNumber": 11, "Mandatory": "No", "Role": "Grouping Qualifier"}, {"ItemOID": "IT.MI.MISCAT", "OrderNumber": 12, "Mandatory": "No", "Role": "Grouping Qualifier"}, {"ItemOID": "IT.MI.MIORRES", "OrderNumber": 13, "Mandatory": "No", "Role": "Result Qualifier"}, {"ItemOID": "IT.MI.MIORRESU", "OrderNumber": 14, "Mandatory": "No", "Role": "Variable Qualifier"}, {"ItemOID": "IT.MI.MISTRESC", "OrderNumber": 15, "Mandatory": "No", "Role": "Result Qualifier"}, {"ItemOID": "IT.MI.MISTRESN", "OrderNumber": 16, "Mandatory": "No", "Role": "Result Qualifier"}, {"ItemOID": "IT.MI.MISTRESU", "OrderNumber": 17, "Mandatory": "No", "Role": "Variable Qualifier"}, {"ItemOID": "IT.MI.MIRESCAT", "OrderNumber": 18, "Mandatory": "No", "Role": "Variable Qualifier"}, {"ItemOID": "IT.MI.MISTAT", "OrderNumber": 19, "Mandatory": "No", "Role": "Record Qualifier"}, {"ItemOID": "IT.MI.MIREASND", "OrderNumber": 20, "Mandatory": "No", "Role": "Record Qualifier"}, {"ItemOID": "IT.MI.MINAM", "OrderNumber": 21, "Mandatory": "No", "Role": "Record Qualifier"}, {"ItemOID": "IT.MI.MISPEC", "OrderNumber": 22, "Mandatory": "No", "Role": "Record Qualifier"}, {"ItemOID": "IT.MI.MISPCCND", "OrderNumber": 23, "Mandatory": "No", "Role": "Record Qualifier"}, {"ItemOID": "IT.MI.MILOC", "OrderNumber": 24, "Mandatory": "No", "Role": "Record Qualifier"}, {"ItemOID": "IT.MI.MILAT", "OrderNumber": 25, "Mandatory": "No", "Role": "Variable Qualifier"}, {"ItemOID": "IT.MI.MIDIR", "OrderNumber": 26, "Mandatory": "No", "Role": "Variable Qualifier"}, {"ItemOID": "IT.MI.MIMETHOD", "OrderNumber": 27, "Mandatory": "No", "Role": "Record Qualifier"}, {"ItemOID": "IT.MI.MILOBXFL", "OrderNumber": 28, "Mandatory": "No", "Role": "Record Qualifier"}, {"ItemOID": "IT.MI.MIBLFL", "OrderNumber": 29, "Mandatory": "No", "Role": "Record Qualifier"}, {"ItemOID": "IT.MI.MIEVAL", "OrderNumber": 30, "Mandatory": "No", "Role": "Record Qualifier"}, {"ItemOID": "IT.MI.VISITNUM", "OrderNumber": 31, "Mandatory": "No", "Role": "Timing"}, {"ItemOID": "IT.MI.VISIT", "OrderNumber": 32, "Mandatory": "No", "Role": "Timing"}, {"ItemOID": "IT.MI.VISITDY", "OrderNumber": 33, "Mandatory": "No", "Role": "Timing"}, {"ItemOID": "IT.MI.TAETORD", "OrderNumber": 34, "Mandatory": "No", "Role": "Timing"}, {"ItemOID": "IT.MI.EPOCH", "OrderNumber": 35, "Mandatory": "No", "Role": "Timing"}, {"ItemOID": "IT.MI.MIDTC", "OrderNumber": 36, "Mandatory": "No", "Role": "Timing"}, {"ItemOID": "IT.MI.MIDY", "OrderNumber": 37, "Mandatory": "No", "Role": "Timing"}], "Class": {"Name": "FINDINGS"}}, {"OID": "IGD.MK", "Name": "MK", "Domain": "MK", "Repeating": "No", "Purpose": "Tabulation", "Structure": "One record per assessment per visit per subject", "Description": {"TranslatedText": [{"lang": "en", "_content": "Musculoskeletal System Findings"}]}, "ItemRef": [{"ItemOID": "IT.MK.STUDYID", "OrderNumber": 1, "Mandatory": "No", "Role": "Identifier"}, {"ItemOID": "IT.MK.DOMAIN", "OrderNumber": 2, "Mandatory": "No", "Role": "Identifier"}, {"ItemOID": "IT.MK.USUBJID", "OrderNumber": 3, "Mandatory": "No", "Role": "Identifier"}, {"ItemOID": "IT.MK.MKSEQ", "OrderNumber": 4, "Mandatory": "No", "Role": "Identifier"}, {"ItemOID": "IT.MK.MKGRPID", "OrderNumber": 5, "Mandatory": "No", "Role": "Identifier"}, {"ItemOID": "IT.MK.MKREFID", "OrderNumber": 6, "Mandatory": "No", "Role": "Identifier"}, {"ItemOID": "IT.MK.MKSPID", "OrderNumber": 7, "Mandatory": "No", "Role": "Identifier"}, {"ItemOID": "IT.MK.MKLNKID", "OrderNumber": 8, "Mandatory": "No", "Role": "Identifier"}, {"ItemOID": "IT.MK.MKLNKGRP", "OrderNumber": 9, "Mandatory": "No", "Role": "Identifier"}, {"ItemOID": "IT.MK.MKTESTCD", "OrderNumber": 10, "Mandatory": "No", "Role": "Topic"}, {"ItemOID": "IT.MK.MKTEST", "OrderNumber": 11, "Mandatory": "No", "Role": "Synonym Qualifier"}, {"ItemOID": "IT.MK.MKCAT", "OrderNumber": 12, "Mandatory": "No", "Role": "Grouping Qualifier"}, {"ItemOID": "IT.MK.MKSCAT", "OrderNumber": 13, "Mandatory": "No", "Role": "Grouping Qualifier"}, {"ItemOID": "IT.MK.MKPOS", "OrderNumber": 14, "Mandatory": "No", "Role": "Record Qualifier"}, {"ItemOID": "IT.MK.MKORRES", "OrderNumber": 15, "Mandatory": "No", "Role": "Result Qualifier"}, {"ItemOID": "IT.MK.MKORRESU", "OrderNumber": 16, "Mandatory": "No", "Role": "Variable Qualifier"}, {"ItemOID": "IT.MK.MKSTRESC", "OrderNumber": 17, "Mandatory": "No", "Role": "Result Qualifier"}, {"ItemOID": "IT.MK.MKSTRESN", "OrderNumber": 18, "Mandatory": "No", "Role": "Result Qualifier"}, {"ItemOID": "IT.MK.MKSTRESU", "OrderNumber": 19, "Mandatory": "No", "Role": "Variable Qualifier"}, {"ItemOID": "IT.MK.MKSTAT", "OrderNumber": 20, "Mandatory": "No", "Role": "Record Qualifier"}, {"ItemOID": "IT.MK.MKREASND", "OrderNumber": 21, "Mandatory": "No", "Role": "Record Qualifier"}, {"ItemOID": "IT.MK.MKLOC", "OrderNumber": 22, "Mandatory": "No", "Role": "Record Qualifier"}, {"ItemOID": "IT.MK.MKLAT", "OrderNumber": 23, "Mandatory": "No", "Role": "Variable Qualifier"}, {"ItemOID": "IT.MK.MKDIR", "OrderNumber": 24, "Mandatory": "No", "Role": "Variable Qualifier"}, {"ItemOID": "IT.MK.MKMETHOD", "OrderNumber": 25, "Mandatory": "No", "Role": "Record Qualifier"}, {"ItemOID": "IT.MK.MKLOBXFL", "OrderNumber": 26, "Mandatory": "No", "Role": "Record Qualifier"}, {"ItemOID": "IT.MK.MKBLFL", "OrderNumber": 27, "Mandatory": "No", "Role": "Record Qualifier"}, {"ItemOID": "IT.MK.MKDRVFL", "OrderNumber": 28, "Mandatory": "No", "Role": "Record Qualifier"}, {"ItemOID": "IT.MK.MKEVAL", "OrderNumber": 29, "Mandatory": "No", "Role": "Record Qualifier"}, {"ItemOID": "IT.MK.MKEVALID", "OrderNumber": 30, "Mandatory": "No", "Role": "Variable Qualifier"}, {"ItemOID": "IT.MK.VISITNUM", "OrderNumber": 31, "Mandatory": "No", "Role": "Timing"}, {"ItemOID": "IT.MK.VISIT", "OrderNumber": 32, "Mandatory": "No", "Role": "Timing"}, {"ItemOID": "IT.MK.VISITDY", "OrderNumber": 33, "Mandatory": "No", "Role": "Timing"}, {"ItemOID": "IT.MK.TAETORD", "OrderNumber": 34, "Mandatory": "No", "Role": "Timing"}, {"ItemOID": "IT.MK.EPOCH", "OrderNumber": 35, "Mandatory": "No", "Role": "Timing"}, {"ItemOID": "IT.MK.MKDTC", "OrderNumber": 36, "Mandatory": "No", "Role": "Timing"}, {"ItemOID": "IT.MK.MKDY", "OrderNumber": 37, "Mandatory": "No", "Role": "Timing"}, {"ItemOID": "IT.MK.MKTPT", "OrderNumber": 38, "Mandatory": "No", "Role": "Timing"}, {"ItemOID": "IT.MK.MKTPTNUM", "OrderNumber": 39, "Mandatory": "No", "Role": "Timing"}, {"ItemOID": "IT.MK.MKELTM", "OrderNumber": 40, "Mandatory": "No", "Role": "Timing"}, {"ItemOID": "IT.MK.MKTPTREF", "OrderNumber": 41, "Mandatory": "No", "Role": "Timing"}, {"ItemOID": "IT.MK.MKRFTDTC", "OrderNumber": 42, "Mandatory": "No", "Role": "Timing"}], "Class": {"Name": "FINDINGS"}}, {"OID": "IGD.MS", "Name": "MS", "Domain": "MS", "Repeating": "No", "Purpose": "Tabulation", "Structure": "One record per microbiology susceptibility test (or other organism-related finding) per organism found in MB", "Description": {"TranslatedText": [{"lang": "en", "_content": "Microbiology Susceptibility"}]}, "ItemRef": [{"ItemOID": "IT.MS.STUDYID", "OrderNumber": 1, "Mandatory": "No", "Role": "Identifier"}, {"ItemOID": "IT.MS.DOMAIN", "OrderNumber": 2, "Mandatory": "No", "Role": "Identifier"}, {"ItemOID": "IT.MS.USUBJID", "OrderNumber": 3, "Mandatory": "No", "Role": "Identifier"}, {"ItemOID": "IT.MS.NHOID", "OrderNumber": 4, "Mandatory": "No", "Role": "Identifier"}, {"ItemOID": "IT.MS.MSSEQ", "OrderNumber": 5, "Mandatory": "No", "Role": "Identifier"}, {"ItemOID": "IT.MS.MSGRPID", "OrderNumber": 6, "Mandatory": "No", "Role": "Identifier"}, {"ItemOID": "IT.MS.MSREFID", "OrderNumber": 7, "Mandatory": "No", "Role": "Identifier"}, {"ItemOID": "IT.MS.MSSPID", "OrderNumber": 8, "Mandatory": "No", "Role": "Identifier"}, {"ItemOID": "IT.MS.MSLNKID", "OrderNumber": 9, "Mandatory": "No", "Role": "Identifier"}, {"ItemOID": "IT.MS.MSTESTCD", "OrderNumber": 10, "Mandatory": "No", "Role": "Topic"}, {"ItemOID": "IT.MS.MSTEST", "OrderNumber": 11, "Mandatory": "No", "Role": "Synonym Qualifier"}, {"ItemOID": "IT.MS.MSAGENT", "OrderNumber": 12, "Mandatory": "No", "Role": "Variable Qualifier"}, {"ItemOID": "IT.MS.MSCONC", "OrderNumber": 13, "Mandatory": "No", "Role": "Variable Qualifier"}, {"ItemOID": "IT.MS.MSCONCU", "OrderNumber": 14, "Mandatory": "No", "Role": "Variable Qualifier"}, {"ItemOID": "IT.MS.MSTSTDTL", "OrderNumber": 15, "Mandatory": "No", "Role": "Variable Qualifier"}, {"ItemOID": "IT.MS.MSCAT", "OrderNumber": 16, "Mandatory": "No", "Role": "Grouping Qualifier"}, {"ItemOID": "IT.MS.MSSCAT", "OrderNumber": 17, "Mandatory": "No", "Role": "Grouping Qualifier"}, {"ItemOID": "IT.MS.MSORRES", "OrderNumber": 18, "Mandatory": "No", "Role": "Result Qualifier"}, {"ItemOID": "IT.MS.MSORRESU", "OrderNumber": 19, "Mandatory": "No", "Role": "Variable Qualifier"}, {"ItemOID": "IT.MS.MSSTRESC", "OrderNumber": 20, "Mandatory": "No", "Role": "Result Qualifier"}, {"ItemOID": "IT.MS.MSSTRESN", "OrderNumber": 21, "Mandatory": "No", "Role": "Result Qualifier"}, {"ItemOID": "IT.MS.MSSTRESU", "OrderNumber": 22, "Mandatory": "No", "Role": "Variable Qualifier"}, {"ItemOID": "IT.MS.MSNRIND", "OrderNumber": 23, "Mandatory": "No", "Role": "Variable Qualifier"}, {"ItemOID": "IT.MS.MSRESCAT", "OrderNumber": 24, "Mandatory": "No", "Role": "Variable Qualifier"}, {"ItemOID": "IT.MS.MSSTAT", "OrderNumber": 25, "Mandatory": "No", "Role": "Record Qualifier"}, {"ItemOID": "IT.MS.MSREASND", "OrderNumber": 26, "Mandatory": "No", "Role": "Record Qualifier"}, {"ItemOID": "IT.MS.MSXFN", "OrderNumber": 27, "Mandatory": "No", "Role": "Record Qualifier"}, {"ItemOID": "IT.MS.MSNAM", "OrderNumber": 28, "Mandatory": "No", "Role": "Record Qualifier"}, {"ItemOID": "IT.MS.MSLOINC", "OrderNumber": 29, "Mandatory": "No", "Role": "Synonym Qualifier"}, {"ItemOID": "IT.MS.MSSPEC", "OrderNumber": 30, "Mandatory": "No", "Role": "Record Qualifier"}, {"ItemOID": "IT.MS.MSSPCCND", "OrderNumber": 31, "Mandatory": "No", "Role": "Record Qualifier"}, {"ItemOID": "IT.MS.MSLOC", "OrderNumber": 32, "Mandatory": "No", "Role": "Record Qualifier"}, {"ItemOID": "IT.MS.MSLAT", "OrderNumber": 33, "Mandatory": "No", "Role": "Variable Qualifier"}, {"ItemOID": "IT.MS.MSDIR", "OrderNumber": 34, "Mandatory": "No", "Role": "Variable Qualifier"}, {"ItemOID": "IT.MS.MSMETHOD", "OrderNumber": 35, "Mandatory": "No", "Role": "Record Qualifier"}, {"ItemOID": "IT.MS.MSANMETH", "OrderNumber": 36, "Mandatory": "No", "Role": "Record Qualifier"}, {"ItemOID": "IT.MS.MSLOBXFL", "OrderNumber": 37, "Mandatory": "No", "Role": "Record Qualifier"}, {"ItemOID": "IT.MS.MSBLFL", "OrderNumber": 38, "Mandatory": "No", "Role": "Record Qualifier"}, {"ItemOID": "IT.MS.MSFAST", "OrderNumber": 39, "Mandatory": "No", "Role": "Record Qualifier"}, {"ItemOID": "IT.MS.MSDRVFL", "OrderNumber": 40, "Mandatory": "No", "Role": "Record Qualifier"}, {"ItemOID": "IT.MS.MSEVAL", "OrderNumber": 41, "Mandatory": "No", "Role": "Record Qualifier"}, {"ItemOID": "IT.MS.MSEVALID", "OrderNumber": 42, "Mandatory": "No", "Role": "Variable Qualifier"}, {"ItemOID": "IT.MS.MSACPTFL", "OrderNumber": 43, "Mandatory": "No", "Role": "Record Qualifier"}, {"ItemOID": "IT.MS.MSLLOQ", "OrderNumber": 44, "Mandatory": "No", "Role": "Variable Qualifier"}, {"ItemOID": "IT.MS.MSULOQ", "OrderNumber": 45, "Mandatory": "No", "Role": "Variable Qualifier"}, {"ItemOID": "IT.MS.MSREPNUM", "OrderNumber": 46, "Mandatory": "No", "Role": "Record Qualifier"}, {"ItemOID": "IT.MS.VISITNUM", "OrderNumber": 47, "Mandatory": "No", "Role": "Timing"}, {"ItemOID": "IT.MS.VISIT", "OrderNumber": 48, "Mandatory": "No", "Role": "Timing"}, {"ItemOID": "IT.MS.VISITDY", "OrderNumber": 49, "Mandatory": "No", "Role": "Timing"}, {"ItemOID": "IT.MS.TAETORD", "OrderNumber": 50, "Mandatory": "No", "Role": "Timing"}, {"ItemOID": "IT.MS.EPOCH", "OrderNumber": 51, "Mandatory": "No", "Role": "Timing"}, {"ItemOID": "IT.MS.MSDTC", "OrderNumber": 52, "Mandatory": "No", "Role": "Timing"}, {"ItemOID": "IT.MS.MSDY", "OrderNumber": 53, "Mandatory": "No", "Role": "Timing"}, {"ItemOID": "IT.MS.MSDUR", "OrderNumber": 54, "Mandatory": "No", "Role": "Timing"}, {"ItemOID": "IT.MS.MSTPT", "OrderNumber": 55, "Mandatory": "No", "Role": "Timing"}, {"ItemOID": "IT.MS.MSTPTNUM", "OrderNumber": 56, "Mandatory": "No", "Role": "Timing"}, {"ItemOID": "IT.MS.MSELTM", "OrderNumber": 57, "Mandatory": "No", "Role": "Timing"}, {"ItemOID": "IT.MS.MSTPTREF", "OrderNumber": 58, "Mandatory": "No", "Role": "Timing"}, {"ItemOID": "IT.MS.MSRFTDTC", "OrderNumber": 59, "Mandatory": "No", "Role": "Timing"}, {"ItemOID": "IT.MS.MSEVLINT", "OrderNumber": 60, "Mandatory": "No", "Role": "Timing"}, {"ItemOID": "IT.MS.MSEVINTX", "OrderNumber": 61, "Mandatory": "No", "Role": "Timing"}], "Class": {"Name": "FINDINGS"}}, {"OID": "IGD.NV", "Name": "NV", "Domain": "NV", "Repeating": "No", "Purpose": "Tabulation", "Structure": "One record per finding per location per time point per visit per subject", "Description": {"TranslatedText": [{"lang": "en", "_content": "Nervous System Findings"}]}, "ItemRef": [{"ItemOID": "IT.NV.STUDYID", "OrderNumber": 1, "Mandatory": "No", "Role": "Identifier"}, {"ItemOID": "IT.NV.DOMAIN", "OrderNumber": 2, "Mandatory": "No", "Role": "Identifier"}, {"ItemOID": "IT.NV.USUBJID", "OrderNumber": 3, "Mandatory": "No", "Role": "Identifier"}, {"ItemOID": "IT.NV.FOCID", "OrderNumber": 4, "Mandatory": "No", "Role": "Identifier"}, {"ItemOID": "IT.NV.NVSEQ", "OrderNumber": 5, "Mandatory": "No", "Role": "Identifier"}, {"ItemOID": "IT.NV.NVGRPID", "OrderNumber": 6, "Mandatory": "No", "Role": "Identifier"}, {"ItemOID": "IT.NV.NVREFID", "OrderNumber": 7, "Mandatory": "No", "Role": "Identifier"}, {"ItemOID": "IT.NV.NVSPID", "OrderNumber": 8, "Mandatory": "No", "Role": "Identifier"}, {"ItemOID": "IT.NV.NVLNKID", "OrderNumber": 9, "Mandatory": "No", "Role": "Identifier"}, {"ItemOID": "IT.NV.NVLNKGRP", "OrderNumber": 10, "Mandatory": "No", "Role": "Identifier"}, {"ItemOID": "IT.NV.NVTESTCD", "OrderNumber": 11, "Mandatory": "No", "Role": "Topic"}, {"ItemOID": "IT.NV.NVTEST", "OrderNumber": 12, "Mandatory": "No", "Role": "Synonym Qualifier"}, {"ItemOID": "IT.NV.NVCAT", "OrderNumber": 13, "Mandatory": "No", "Role": "Grouping Qualifier"}, {"ItemOID": "IT.NV.NVSCAT", "OrderNumber": 14, "Mandatory": "No", "Role": "Grouping Qualifier"}, {"ItemOID": "IT.NV.NVORRES", "OrderNumber": 15, "Mandatory": "No", "Role": "Result Qualifier"}, {"ItemOID": "IT.NV.NVORRESU", "OrderNumber": 16, "Mandatory": "No", "Role": "Variable Qualifier"}, {"ItemOID": "IT.NV.NVSTRESC", "OrderNumber": 17, "Mandatory": "No", "Role": "Result Qualifier"}, {"ItemOID": "IT.NV.NVSTRESN", "OrderNumber": 18, "Mandatory": "No", "Role": "Result Qualifier"}, {"ItemOID": "IT.NV.NVSTRESU", "OrderNumber": 19, "Mandatory": "No", "Role": "Variable Qualifier"}, {"ItemOID": "IT.NV.NVSTAT", "OrderNumber": 20, "Mandatory": "No", "Role": "Record Qualifier"}, {"ItemOID": "IT.NV.NVREASND", "OrderNumber": 21, "Mandatory": "No", "Role": "Record Qualifier"}, {"ItemOID": "IT.NV.NVLOC", "OrderNumber": 22, "Mandatory": "No", "Role": "Record Qualifier"}, {"ItemOID": "IT.NV.NVLAT", "OrderNumber": 23, "Mandatory": "No", "Role": "Variable Qualifier"}, {"ItemOID": "IT.NV.NVDIR", "OrderNumber": 24, "Mandatory": "No", "Role": "Variable Qualifier"}, {"ItemOID": "IT.NV.NVMETHOD", "OrderNumber": 25, "Mandatory": "No", "Role": "Record Qualifier"}, {"ItemOID": "IT.NV.NVLOBXFL", "OrderNumber": 26, "Mandatory": "No", "Role": "Record Qualifier"}, {"ItemOID": "IT.NV.NVBLFL", "OrderNumber": 27, "Mandatory": "No", "Role": "Record Qualifier"}, {"ItemOID": "IT.NV.NVDRVFL", "OrderNumber": 28, "Mandatory": "No", "Role": "Record Qualifier"}, {"ItemOID": "IT.NV.NVEVAL", "OrderNumber": 29, "Mandatory": "No", "Role": "Record Qualifier"}, {"ItemOID": "IT.NV.NVEVALID", "OrderNumber": 30, "Mandatory": "No", "Role": "Variable Qualifier"}, {"ItemOID": "IT.NV.VISITNUM", "OrderNumber": 31, "Mandatory": "No", "Role": "Timing"}, {"ItemOID": "IT.NV.VISIT", "OrderNumber": 32, "Mandatory": "No", "Role": "Timing"}, {"ItemOID": "IT.NV.VISITDY", "OrderNumber": 33, "Mandatory": "No", "Role": "Timing"}, {"ItemOID": "IT.NV.TAETORD", "OrderNumber": 34, "Mandatory": "No", "Role": "Timing"}, {"ItemOID": "IT.NV.EPOCH", "OrderNumber": 35, "Mandatory": "No", "Role": "Timing"}, {"ItemOID": "IT.NV.NVDTC", "OrderNumber": 36, "Mandatory": "No", "Role": "Timing"}, {"ItemOID": "IT.NV.NVDY", "OrderNumber": 37, "Mandatory": "No", "Role": "Timing"}, {"ItemOID": "IT.NV.NVTPT", "OrderNumber": 38, "Mandatory": "No", "Role": "Timing"}, {"ItemOID": "IT.NV.NVTPTNUM", "OrderNumber": 39, "Mandatory": "No", "Role": "Timing"}, {"ItemOID": "IT.NV.NVELTM", "OrderNumber": 40, "Mandatory": "No", "Role": "Timing"}, {"ItemOID": "IT.NV.NVTPTREF", "OrderNumber": 41, "Mandatory": "No", "Role": "Timing"}, {"ItemOID": "IT.NV.NVRFTDTC", "OrderNumber": 42, "Mandatory": "No", "Role": "Timing"}], "Class": {"Name": "FINDINGS"}}, {"OID": "IGD.OE", "Name": "OE", "Domain": "OE", "Repeating": "No", "Purpose": "Tabulation", "Structure": "One record per ophthalmic finding per method per location, per time point per visit per subject", "Description": {"TranslatedText": [{"lang": "en", "_content": "Ophthalmic Examinations"}]}, "ItemRef": [{"ItemOID": "IT.OE.STUDYID", "OrderNumber": 1, "Mandatory": "No", "Role": "Identifier"}, {"ItemOID": "IT.OE.DOMAIN", "OrderNumber": 2, "Mandatory": "No", "Role": "Identifier"}, {"ItemOID": "IT.OE.USUBJID", "OrderNumber": 3, "Mandatory": "No", "Role": "Identifier"}, {"ItemOID": "IT.OE.FOCID", "OrderNumber": 4, "Mandatory": "No", "Role": "Identifier"}, {"ItemOID": "IT.OE.OESEQ", "OrderNumber": 5, "Mandatory": "No", "Role": "Identifier"}, {"ItemOID": "IT.OE.OEGRPID", "OrderNumber": 6, "Mandatory": "No", "Role": "Identifier"}, {"ItemOID": "IT.OE.OELNKID", "OrderNumber": 7, "Mandatory": "No", "Role": "Identifier"}, {"ItemOID": "IT.OE.OELNKGRP", "OrderNumber": 8, "Mandatory": "No", "Role": "Identifier"}, {"ItemOID": "IT.OE.OETESTCD", "OrderNumber": 9, "Mandatory": "No", "Role": "Topic"}, {"ItemOID": "IT.OE.OETEST", "OrderNumber": 10, "Mandatory": "No", "Role": "Synonym Qualifier"}, {"ItemOID": "IT.OE.OETSTDTL", "OrderNumber": 11, "Mandatory": "No", "Role": "Variable Qualifier"}, {"ItemOID": "IT.OE.OECAT", "OrderNumber": 12, "Mandatory": "No", "Role": "Grouping Qualifier"}, {"ItemOID": "IT.OE.OESCAT", "OrderNumber": 13, "Mandatory": "No", "Role": "Grouping Qualifier"}, {"ItemOID": "IT.OE.OEORRES", "OrderNumber": 14, "Mandatory": "No", "Role": "Result Qualifier"}, {"ItemOID": "IT.OE.OEORRESU", "OrderNumber": 15, "Mandatory": "No", "Role": "Variable Qualifier"}, {"ItemOID": "IT.OE.OEORNRLO", "OrderNumber": 16, "Mandatory": "No", "Role": "Variable Qualifier"}, {"ItemOID": "IT.OE.OEORNRHI", "OrderNumber": 17, "Mandatory": "No", "Role": "Variable Qualifier"}, {"ItemOID": "IT.OE.OESTRESC", "OrderNumber": 18, "Mandatory": "No", "Role": "Result Qualifier"}, {"ItemOID": "IT.OE.OESTRESN", "OrderNumber": 19, "Mandatory": "No", "Role": "Result Qualifier"}, {"ItemOID": "IT.OE.OESTRESU", "OrderNumber": 20, "Mandatory": "No", "Role": "Variable Qualifier"}, {"ItemOID": "IT.OE.OESTNRLO", "OrderNumber": 21, "Mandatory": "No", "Role": "Variable Qualifier"}, {"ItemOID": "IT.OE.OESTNRHI", "OrderNumber": 22, "Mandatory": "No", "Role": "Variable Qualifier"}, {"ItemOID": "IT.OE.OESTNRC", "OrderNumber": 23, "Mandatory": "No", "Role": "Variable Qualifier"}, {"ItemOID": "IT.OE.OENRIND", "OrderNumber": 24, "Mandatory": "No", "Role": "Variable Qualifier"}, {"ItemOID": "IT.OE.OERESCAT", "OrderNumber": 25, "Mandatory": "No", "Role": "Variable Qualifier"}, {"ItemOID": "IT.OE.OESTAT", "OrderNumber": 26, "Mandatory": "No", "Role": "Record Qualifier"}, {"ItemOID": "IT.OE.OEREASND", "OrderNumber": 27, "Mandatory": "No", "Role": "Record Qualifier"}, {"ItemOID": "IT.OE.OEXFN", "OrderNumber": 28, "Mandatory": "No", "Role": "Record Qualifier"}, {"ItemOID": "IT.OE.OELOC", "OrderNumber": 29, "Mandatory": "No", "Role": "Record Qualifier"}, {"ItemOID": "IT.OE.OELAT", "OrderNumber": 30, "Mandatory": "No", "Role": "Variable Qualifier"}, {"ItemOID": "IT.OE.OEDIR", "OrderNumber": 31, "Mandatory": "No", "Role": "Variable Qualifier"}, {"ItemOID": "IT.OE.OEPORTOT", "OrderNumber": 32, "Mandatory": "No", "Role": "Variable Qualifier"}, {"ItemOID": "IT.OE.OEMETHOD", "OrderNumber": 33, "Mandatory": "No", "Role": "Record Qualifier"}, {"ItemOID": "IT.OE.OELOBXFL", "OrderNumber": 34, "Mandatory": "No", "Role": "Record Qualifier"}, {"ItemOID": "IT.OE.OEBLFL", "OrderNumber": 35, "Mandatory": "No", "Role": "Record Qualifier"}, {"ItemOID": "IT.OE.OEDRVFL", "OrderNumber": 36, "Mandatory": "No", "Role": "Record Qualifier"}, {"ItemOID": "IT.OE.OEEVAL", "OrderNumber": 37, "Mandatory": "No", "Role": "Record Qualifier"}, {"ItemOID": "IT.OE.OEEVALID", "OrderNumber": 38, "Mandatory": "No", "Role": "Variable Qualifier"}, {"ItemOID": "IT.OE.OEACPTFL", "OrderNumber": 39, "Mandatory": "No", "Role": "Record Qualifier"}, {"ItemOID": "IT.OE.OEREPNUM", "OrderNumber": 40, "Mandatory": "No", "Role": "Record Qualifier"}, {"ItemOID": "IT.OE.VISITNUM", "OrderNumber": 41, "Mandatory": "No", "Role": "Timing"}, {"ItemOID": "IT.OE.VISIT", "OrderNumber": 42, "Mandatory": "No", "Role": "Timing"}, {"ItemOID": "IT.OE.VISITDY", "OrderNumber": 43, "Mandatory": "No", "Role": "Timing"}, {"ItemOID": "IT.OE.TAETORD", "OrderNumber": 44, "Mandatory": "No", "Role": "Timing"}, {"ItemOID": "IT.OE.EPOCH", "OrderNumber": 45, "Mandatory": "No", "Role": "Timing"}, {"ItemOID": "IT.OE.OEDTC", "OrderNumber": 46, "Mandatory": "No", "Role": "Timing"}, {"ItemOID": "IT.OE.OEDY", "OrderNumber": 47, "Mandatory": "No", "Role": "Timing"}, {"ItemOID": "IT.OE.OETPT", "OrderNumber": 48, "Mandatory": "No", "Role": "Timing"}, {"ItemOID": "IT.OE.OETPTNUM", "OrderNumber": 49, "Mandatory": "No", "Role": "Timing"}, {"ItemOID": "IT.OE.OEELTM", "OrderNumber": 50, "Mandatory": "No", "Role": "Timing"}, {"ItemOID": "IT.OE.OETPTREF", "OrderNumber": 51, "Mandatory": "No", "Role": "Timing"}, {"ItemOID": "IT.OE.OERFTDTC", "OrderNumber": 52, "Mandatory": "No", "Role": "Timing"}], "Class": {"Name": "FINDINGS"}}, {"OID": "IGD.PC", "Name": "PC", "Domain": "PC", "Repeating": "No", "Purpose": "Tabulation", "Structure": "One record per sample characteristic or time-point concentration per reference time point or per analyte per subject", "Description": {"TranslatedText": [{"lang": "en", "_content": "Pharmacokinetics Concentrations"}]}, "ItemRef": [{"ItemOID": "IT.PC.STUDYID", "OrderNumber": 1, "Mandatory": "No", "Role": "Identifier"}, {"ItemOID": "IT.PC.DOMAIN", "OrderNumber": 2, "Mandatory": "No", "Role": "Identifier"}, {"ItemOID": "IT.PC.USUBJID", "OrderNumber": 3, "Mandatory": "No", "Role": "Identifier"}, {"ItemOID": "IT.PC.PCSEQ", "OrderNumber": 4, "Mandatory": "No", "Role": "Identifier"}, {"ItemOID": "IT.PC.PCGRPID", "OrderNumber": 5, "Mandatory": "No", "Role": "Identifier"}, {"ItemOID": "IT.PC.PCREFID", "OrderNumber": 6, "Mandatory": "No", "Role": "Identifier"}, {"ItemOID": "IT.PC.PCSPID", "OrderNumber": 7, "Mandatory": "No", "Role": "Identifier"}, {"ItemOID": "IT.PC.PCTESTCD", "OrderNumber": 8, "Mandatory": "No", "Role": "Topic"}, {"ItemOID": "IT.PC.PCTEST", "OrderNumber": 9, "Mandatory": "No", "Role": "Synonym Qualifier"}, {"ItemOID": "IT.PC.PCCAT", "OrderNumber": 10, "Mandatory": "No", "Role": "Grouping Qualifier"}, {"ItemOID": "IT.PC.PCSCAT", "OrderNumber": 11, "Mandatory": "No", "Role": "Grouping Qualifier"}, {"ItemOID": "IT.PC.PCORRES", "OrderNumber": 12, "Mandatory": "No", "Role": "Result Qualifier"}, {"ItemOID": "IT.PC.PCORRESU", "OrderNumber": 13, "Mandatory": "No", "Role": "Variable Qualifier"}, {"ItemOID": "IT.PC.PCSTRESC", "OrderNumber": 14, "Mandatory": "No", "Role": "Result Qualifier"}, {"ItemOID": "IT.PC.PCSTRESN", "OrderNumber": 15, "Mandatory": "No", "Role": "Result Qualifier"}, {"ItemOID": "IT.PC.PCSTRESU", "OrderNumber": 16, "Mandatory": "No", "Role": "Variable Qualifier"}, {"ItemOID": "IT.PC.PCSTAT", "OrderNumber": 17, "Mandatory": "No", "Role": "Record Qualifier"}, {"ItemOID": "IT.PC.PCREASND", "OrderNumber": 18, "Mandatory": "No", "Role": "Record Qualifier"}, {"ItemOID": "IT.PC.PCNAM", "OrderNumber": 19, "Mandatory": "No", "Role": "Record Qualifier"}, {"ItemOID": "IT.PC.PCSPEC", "OrderNumber": 20, "Mandatory": "No", "Role": "Record Qualifier"}, {"ItemOID": "IT.PC.PCSPCCND", "OrderNumber": 21, "Mandatory": "No", "Role": "Record Qualifier"}, {"ItemOID": "IT.PC.PCMETHOD", "OrderNumber": 22, "Mandatory": "No", "Role": "Record Qualifier"}, {"ItemOID": "IT.PC.PCFAST", "OrderNumber": 23, "Mandatory": "No", "Role": "Record Qualifier"}, {"ItemOID": "IT.PC.PCDRVFL", "OrderNumber": 24, "Mandatory": "No", "Role": "Record Qualifier"}, {"ItemOID": "IT.PC.PCLLOQ", "OrderNumber": 25, "Mandatory": "No", "Role": "Variable Qualifier"}, {"ItemOID": "IT.PC.PCULOQ", "OrderNumber": 26, "Mandatory": "No", "Role": "Variable Qualifier"}, {"ItemOID": "IT.PC.VISITNUM", "OrderNumber": 27, "Mandatory": "No", "Role": "Timing"}, {"ItemOID": "IT.PC.VISIT", "OrderNumber": 28, "Mandatory": "No", "Role": "Timing"}, {"ItemOID": "IT.PC.VISITDY", "OrderNumber": 29, "Mandatory": "No", "Role": "Timing"}, {"ItemOID": "IT.PC.TAETORD", "OrderNumber": 30, "Mandatory": "No", "Role": "Timing"}, {"ItemOID": "IT.PC.EPOCH", "OrderNumber": 31, "Mandatory": "No", "Role": "Timing"}, {"ItemOID": "IT.PC.PCDTC", "OrderNumber": 32, "Mandatory": "No", "Role": "Timing"}, {"ItemOID": "IT.PC.PCENDTC", "OrderNumber": 33, "Mandatory": "No", "Role": "Timing"}, {"ItemOID": "IT.PC.PCDY", "OrderNumber": 34, "Mandatory": "No", "Role": "Timing"}, {"ItemOID": "IT.PC.PCENDY", "OrderNumber": 35, "Mandatory": "No", "Role": "Timing"}, {"ItemOID": "IT.PC.PCTPT", "OrderNumber": 36, "Mandatory": "No", "Role": "Timing"}, {"ItemOID": "IT.PC.PCTPTNUM", "OrderNumber": 37, "Mandatory": "No", "Role": "Timing"}, {"ItemOID": "IT.PC.PCELTM", "OrderNumber": 38, "Mandatory": "No", "Role": "Timing"}, {"ItemOID": "IT.PC.PCTPTREF", "OrderNumber": 39, "Mandatory": "No", "Role": "Timing"}, {"ItemOID": "IT.PC.PCRFTDTC", "OrderNumber": 40, "Mandatory": "No", "Role": "Timing"}, {"ItemOID": "IT.PC.PCEVLINT", "OrderNumber": 41, "Mandatory": "No", "Role": "Timing"}], "Class": {"Name": "FINDINGS"}}, {"OID": "IGD.PE", "Name": "PE", "Domain": "PE", "Repeating": "No", "Purpose": "Tabulation", "Structure": "One record per body system or abnormality per visit per subject", "Description": {"TranslatedText": [{"lang": "en", "_content": "Physical Examination"}]}, "ItemRef": [{"ItemOID": "IT.PE.STUDYID", "OrderNumber": 1, "Mandatory": "No", "Role": "Identifier"}, {"ItemOID": "IT.PE.DOMAIN", "OrderNumber": 2, "Mandatory": "No", "Role": "Identifier"}, {"ItemOID": "IT.PE.USUBJID", "OrderNumber": 3, "Mandatory": "No", "Role": "Identifier"}, {"ItemOID": "IT.PE.PESEQ", "OrderNumber": 4, "Mandatory": "No", "Role": "Identifier"}, {"ItemOID": "IT.PE.PEGRPID", "OrderNumber": 5, "Mandatory": "No", "Role": "Identifier"}, {"ItemOID": "IT.PE.PESPID", "OrderNumber": 6, "Mandatory": "No", "Role": "Identifier"}, {"ItemOID": "IT.PE.PETESTCD", "OrderNumber": 7, "Mandatory": "No", "Role": "Topic"}, {"ItemOID": "IT.PE.PETEST", "OrderNumber": 8, "Mandatory": "No", "Role": "Synonym Qualifier"}, {"ItemOID": "IT.PE.PEMODIFY", "OrderNumber": 9, "Mandatory": "No", "Role": "Synonym Qualifier"}, {"ItemOID": "IT.PE.PECAT", "OrderNumber": 10, "Mandatory": "No", "Role": "Grouping Qualifier"}, {"ItemOID": "IT.PE.PESCAT", "OrderNumber": 11, "Mandatory": "No", "Role": "Grouping Qualifier"}, {"ItemOID": "IT.PE.PEBODSYS", "OrderNumber": 12, "Mandatory": "No", "Role": "Record Qualifier"}, {"ItemOID": "IT.PE.PEORRES", "OrderNumber": 13, "Mandatory": "No", "Role": "Result Qualifier"}, {"ItemOID": "IT.PE.PEORRESU", "OrderNumber": 14, "Mandatory": "No", "Role": "Variable Qualifier"}, {"ItemOID": "IT.PE.PESTRESC", "OrderNumber": 15, "Mandatory": "No", "Role": "Result Qualifier"}, {"ItemOID": "IT.PE.PESTAT", "OrderNumber": 16, "Mandatory": "No", "Role": "Record Qualifier"}, {"ItemOID": "IT.PE.PEREASND", "OrderNumber": 17, "Mandatory": "No", "Role": "Record Qualifier"}, {"ItemOID": "IT.PE.PELOC", "OrderNumber": 18, "Mandatory": "No", "Role": "Record Qualifier"}, {"ItemOID": "IT.PE.PELAT", "OrderNumber": 19, "Mandatory": "No", "Role": "Variable Qualifier"}, {"ItemOID": "IT.PE.PEMETHOD", "OrderNumber": 20, "Mandatory": "No", "Role": "Record Qualifier"}, {"ItemOID": "IT.PE.PELOBXFL", "OrderNumber": 21, "Mandatory": "No", "Role": "Record Qualifier"}, {"ItemOID": "IT.PE.PEBLFL", "OrderNumber": 22, "Mandatory": "No", "Role": "Record Qualifier"}, {"ItemOID": "IT.PE.PEEVAL", "OrderNumber": 23, "Mandatory": "No", "Role": "Record Qualifier"}, {"ItemOID": "IT.PE.VISITNUM", "OrderNumber": 24, "Mandatory": "No", "Role": "Timing"}, {"ItemOID": "IT.PE.VISIT", "OrderNumber": 25, "Mandatory": "No", "Role": "Timing"}, {"ItemOID": "IT.PE.VISITDY", "OrderNumber": 26, "Mandatory": "No", "Role": "Timing"}, {"ItemOID": "IT.PE.TAETORD", "OrderNumber": 27, "Mandatory": "No", "Role": "Timing"}, {"ItemOID": "IT.PE.EPOCH", "OrderNumber": 28, "Mandatory": "No", "Role": "Timing"}, {"ItemOID": "IT.PE.PEDTC", "OrderNumber": 29, "Mandatory": "No", "Role": "Timing"}, {"ItemOID": "IT.PE.PEDY", "OrderNumber": 30, "Mandatory": "No", "Role": "Timing"}], "Class": {"Name": "FINDINGS"}}, {"OID": "IGD.PP", "Name": "PP", "Domain": "PP", "Repeating": "No", "Purpose": "Tabulation", "Structure": "One record per PK parameter per time-concentration profile per modeling method per subject", "Description": {"TranslatedText": [{"lang": "en", "_content": "Pharmacokinetics Parameters"}]}, "ItemRef": [{"ItemOID": "IT.PP.STUDYID", "OrderNumber": 1, "Mandatory": "No", "Role": "Identifier"}, {"ItemOID": "IT.PP.DOMAIN", "OrderNumber": 2, "Mandatory": "No", "Role": "Identifier"}, {"ItemOID": "IT.PP.USUBJID", "OrderNumber": 3, "Mandatory": "No", "Role": "Identifier"}, {"ItemOID": "IT.PP.PPSEQ", "OrderNumber": 4, "Mandatory": "No", "Role": "Identifier"}, {"ItemOID": "IT.PP.PPGRPID", "OrderNumber": 5, "Mandatory": "No", "Role": "Identifier"}, {"ItemOID": "IT.PP.PPTESTCD", "OrderNumber": 6, "Mandatory": "No", "Role": "Topic"}, {"ItemOID": "IT.PP.PPTEST", "OrderNumber": 7, "Mandatory": "No", "Role": "Synonym Qualifier"}, {"ItemOID": "IT.PP.PPCAT", "OrderNumber": 8, "Mandatory": "No", "Role": "Grouping Qualifier"}, {"ItemOID": "IT.PP.PPSCAT", "OrderNumber": 9, "Mandatory": "No", "Role": "Grouping Qualifier"}, {"ItemOID": "IT.PP.PPORRES", "OrderNumber": 10, "Mandatory": "No", "Role": "Result Qualifier"}, {"ItemOID": "IT.PP.PPORRESU", "OrderNumber": 11, "Mandatory": "No", "Role": "Variable Qualifier"}, {"ItemOID": "IT.PP.PPSTRESC", "OrderNumber": 12, "Mandatory": "No", "Role": "Result Qualifier"}, {"ItemOID": "IT.PP.PPSTRESN", "OrderNumber": 13, "Mandatory": "No", "Role": "Result Qualifier"}, {"ItemOID": "IT.PP.PPSTRESU", "OrderNumber": 14, "Mandatory": "No", "Role": "Variable Qualifier"}, {"ItemOID": "IT.PP.PPSTAT", "OrderNumber": 15, "Mandatory": "No", "Role": "Record Qualifier"}, {"ItemOID": "IT.PP.PPREASND", "OrderNumber": 16, "Mandatory": "No", "Role": "Record Qualifier"}, {"ItemOID": "IT.PP.PPSPEC", "OrderNumber": 17, "Mandatory": "No", "Role": "Record Qualifier"}, {"ItemOID": "IT.PP.PPANMETH", "OrderNumber": 18, "Mandatory": "No", "Role": "Record Qualifier"}, {"ItemOID": "IT.PP.TAETORD", "OrderNumber": 19, "Mandatory": "No", "Role": "Timing"}, {"ItemOID": "IT.PP.EPOCH", "OrderNumber": 20, "Mandatory": "No", "Role": "Timing"}, {"ItemOID": "IT.PP.PPDTC", "OrderNumber": 21, "Mandatory": "No", "Role": "Timing"}, {"ItemOID": "IT.PP.PPDY", "OrderNumber": 22, "Mandatory": "No", "Role": "Timing"}, {"ItemOID": "IT.PP.PPTPTREF", "OrderNumber": 23, "Mandatory": "No", "Role": "Timing"}, {"ItemOID": "IT.PP.PPRFTDTC", "OrderNumber": 24, "Mandatory": "No", "Role": "Timing"}, {"ItemOID": "IT.PP.PPSTINT", "OrderNumber": 25, "Mandatory": "No", "Role": "Timing"}, {"ItemOID": "IT.PP.PPENINT", "OrderNumber": 26, "Mandatory": "No", "Role": "Timing"}], "Class": {"Name": "FINDINGS"}}, {"OID": "IGD.QS", "Name": "QS", "Domain": "QS", "Repeating": "No", "Purpose": "Tabulation", "Structure": "One record per questionnaire per question per time point per visit per subject", "Description": {"TranslatedText": [{"lang": "en", "_content": "Questionnaires"}]}, "ItemRef": [{"ItemOID": "IT.QS.STUDYID", "OrderNumber": 1, "Mandatory": "No", "Role": "Identifier"}, {"ItemOID": "IT.QS.DOMAIN", "OrderNumber": 2, "Mandatory": "No", "Role": "Identifier"}, {"ItemOID": "IT.QS.USUBJID", "OrderNumber": 3, "Mandatory": "No", "Role": "Identifier"}, {"ItemOID": "IT.QS.QSSEQ", "OrderNumber": 4, "Mandatory": "No", "Role": "Identifier"}, {"ItemOID": "IT.QS.QSGRPID", "OrderNumber": 5, "Mandatory": "No", "Role": "Identifier"}, {"ItemOID": "IT.QS.QSSPID", "OrderNumber": 6, "Mandatory": "No", "Role": "Identifier"}, {"ItemOID": "IT.QS.QSTESTCD", "OrderNumber": 7, "Mandatory": "No", "Role": "Topic"}, {"ItemOID": "IT.QS.QSTEST", "OrderNumber": 8, "Mandatory": "No", "Role": "Synonym Qualifier"}, {"ItemOID": "IT.QS.QSCAT", "OrderNumber": 9, "Mandatory": "No", "Role": "Grouping Qualifier"}, {"ItemOID": "IT.QS.QSSCAT", "OrderNumber": 10, "Mandatory": "No", "Role": "Grouping Qualifier"}, {"ItemOID": "IT.QS.QSORRES", "OrderNumber": 11, "Mandatory": "No", "Role": "Result Qualifier"}, {"ItemOID": "IT.QS.QSORRESU", "OrderNumber": 12, "Mandatory": "No", "Role": "Variable Qualifier"}, {"ItemOID": "IT.QS.QSSTRESC", "OrderNumber": 13, "Mandatory": "No", "Role": "Result Qualifier"}, {"ItemOID": "IT.QS.QSSTRESN", "OrderNumber": 14, "Mandatory": "No", "Role": "Result Qualifier"}, {"ItemOID": "IT.QS.QSSTRESU", "OrderNumber": 15, "Mandatory": "No", "Role": "Variable Qualifier"}, {"ItemOID": "IT.QS.QSSTAT", "OrderNumber": 16, "Mandatory": "No", "Role": "Record Qualifier"}, {"ItemOID": "IT.QS.QSREASND", "OrderNumber": 17, "Mandatory": "No", "Role": "Record Qualifier"}, {"ItemOID": "IT.QS.QSMETHOD", "OrderNumber": 18, "Mandatory": "No", "Role": "Record Qualifier"}, {"ItemOID": "IT.QS.QSLOBXFL", "OrderNumber": 19, "Mandatory": "No", "Role": "Record Qualifier"}, {"ItemOID": "IT.QS.QSBLFL", "OrderNumber": 20, "Mandatory": "No", "Role": "Record Qualifier"}, {"ItemOID": "IT.QS.QSDRVFL", "OrderNumber": 21, "Mandatory": "No", "Role": "Record Qualifier"}, {"ItemOID": "IT.QS.VISITNUM", "OrderNumber": 22, "Mandatory": "No", "Role": "Timing"}, {"ItemOID": "IT.QS.VISIT", "OrderNumber": 23, "Mandatory": "No", "Role": "Timing"}, {"ItemOID": "IT.QS.VISITDY", "OrderNumber": 24, "Mandatory": "No", "Role": "Timing"}, {"ItemOID": "IT.QS.TAETORD", "OrderNumber": 25, "Mandatory": "No", "Role": "Timing"}, {"ItemOID": "IT.QS.EPOCH", "OrderNumber": 26, "Mandatory": "No", "Role": "Timing"}, {"ItemOID": "IT.QS.QSDTC", "OrderNumber": 27, "Mandatory": "No", "Role": "Timing"}, {"ItemOID": "IT.QS.QSDY", "OrderNumber": 28, "Mandatory": "No", "Role": "Timing"}, {"ItemOID": "IT.QS.QSTPT", "OrderNumber": 29, "Mandatory": "No", "Role": "Timing"}, {"ItemOID": "IT.QS.QSTPTNUM", "OrderNumber": 30, "Mandatory": "No", "Role": "Timing"}, {"ItemOID": "IT.QS.QSELTM", "OrderNumber": 31, "Mandatory": "No", "Role": "Timing"}, {"ItemOID": "IT.QS.QSTPTREF", "OrderNumber": 32, "Mandatory": "No", "Role": "Timing"}, {"ItemOID": "IT.QS.QSRFTDTC", "OrderNumber": 33, "Mandatory": "No", "Role": "Timing"}, {"ItemOID": "IT.QS.QSEVLINT", "OrderNumber": 34, "Mandatory": "No", "Role": "Timing"}, {"ItemOID": "IT.QS.QSEVINTX", "OrderNumber": 35, "Mandatory": "No", "Role": "Timing"}], "Class": {"Name": "FINDINGS"}}, {"OID": "IGD.RE", "Name": "RE", "Domain": "RE", "Repeating": "No", "Purpose": "Tabulation", "Structure": "One record per finding or result per time point per visit per subject", "Description": {"TranslatedText": [{"lang": "en", "_content": "Respiratory System Findings"}]}, "ItemRef": [{"ItemOID": "IT.RE.STUDYID", "OrderNumber": 1, "Mandatory": "No", "Role": "Identifier"}, {"ItemOID": "IT.RE.DOMAIN", "OrderNumber": 2, "Mandatory": "No", "Role": "Identifier"}, {"ItemOID": "IT.RE.USUBJID", "OrderNumber": 3, "Mandatory": "No", "Role": "Identifier"}, {"ItemOID": "IT.RE.SPDEVID", "OrderNumber": 4, "Mandatory": "No", "Role": "Identifier"}, {"ItemOID": "IT.RE.RESEQ", "OrderNumber": 5, "Mandatory": "No", "Role": "Identifier"}, {"ItemOID": "IT.RE.REGRPID", "OrderNumber": 6, "Mandatory": "No", "Role": "Identifier"}, {"ItemOID": "IT.RE.REREFID", "OrderNumber": 7, "Mandatory": "No", "Role": "Identifier"}, {"ItemOID": "IT.RE.RESPID", "OrderNumber": 8, "Mandatory": "No", "Role": "Identifier"}, {"ItemOID": "IT.RE.RELNKID", "OrderNumber": 9, "Mandatory": "No", "Role": "Identifier"}, {"ItemOID": "IT.RE.RELNKGRP", "OrderNumber": 10, "Mandatory": "No", "Role": "Identifier"}, {"ItemOID": "IT.RE.RETESTCD", "OrderNumber": 11, "Mandatory": "No", "Role": "Topic"}, {"ItemOID": "IT.RE.RETEST", "OrderNumber": 12, "Mandatory": "No", "Role": "Synonym Qualifier"}, {"ItemOID": "IT.RE.RECAT", "OrderNumber": 13, "Mandatory": "No", "Role": "Grouping Qualifier"}, {"ItemOID": "IT.RE.RESCAT", "OrderNumber": 14, "Mandatory": "No", "Role": "Grouping Qualifier"}, {"ItemOID": "IT.RE.REPOS", "OrderNumber": 15, "Mandatory": "No", "Role": "Record Qualifier"}, {"ItemOID": "IT.RE.REORRES", "OrderNumber": 16, "Mandatory": "No", "Role": "Result Qualifier"}, {"ItemOID": "IT.RE.REORRESU", "OrderNumber": 17, "Mandatory": "No", "Role": "Variable Qualifier"}, {"ItemOID": "IT.RE.REORREF", "OrderNumber": 18, "Mandatory": "No", "Role": "Variable Qualifier"}, {"ItemOID": "IT.RE.RESTRESC", "OrderNumber": 19, "Mandatory": "No", "Role": "Result Qualifier"}, {"ItemOID": "IT.RE.RESTRESN", "OrderNumber": 20, "Mandatory": "No", "Role": "Result Qualifier"}, {"ItemOID": "IT.RE.RESTRESU", "OrderNumber": 21, "Mandatory": "No", "Role": "Variable Qualifier"}, {"ItemOID": "IT.RE.RESTREFC", "OrderNumber": 22, "Mandatory": "No", "Role": "Variable Qualifier"}, {"ItemOID": "IT.RE.RESTREFN", "OrderNumber": 23, "Mandatory": "No", "Role": "Variable Qualifier"}, {"ItemOID": "IT.RE.RESTAT", "OrderNumber": 24, "Mandatory": "No", "Role": "Record Qualifier"}, {"ItemOID": "IT.RE.REREASND", "OrderNumber": 25, "Mandatory": "No", "Role": "Record Qualifier"}, {"ItemOID": "IT.RE.RELOC", "OrderNumber": 26, "Mandatory": "No", "Role": "Record Qualifier"}, {"ItemOID": "IT.RE.RELAT", "OrderNumber": 27, "Mandatory": "No", "Role": "Variable Qualifier"}, {"ItemOID": "IT.RE.REDIR", "OrderNumber": 28, "Mandatory": "No", "Role": "Variable Qualifier"}, {"ItemOID": "IT.RE.REMETHOD", "OrderNumber": 29, "Mandatory": "No", "Role": "Record Qualifier"}, {"ItemOID": "IT.RE.RELOBXFL", "OrderNumber": 30, "Mandatory": "No", "Role": "Record Qualifier"}, {"ItemOID": "IT.RE.REBLFL", "OrderNumber": 31, "Mandatory": "No", "Role": "Record Qualifier"}, {"ItemOID": "IT.RE.REDRVFL", "OrderNumber": 32, "Mandatory": "No", "Role": "Record Qualifier"}, {"ItemOID": "IT.RE.REEVAL", "OrderNumber": 33, "Mandatory": "No", "Role": "Record Qualifier"}, {"ItemOID": "IT.RE.REEVALID", "OrderNumber": 34, "Mandatory": "No", "Role": "Variable Qualifier"}, {"ItemOID": "IT.RE.REREPNUM", "OrderNumber": 35, "Mandatory": "No", "Role": "Record Qualifier"}, {"ItemOID": "IT.RE.VISITNUM", "OrderNumber": 36, "Mandatory": "No", "Role": "Timing"}, {"ItemOID": "IT.RE.VISIT", "OrderNumber": 37, "Mandatory": "No", "Role": "Timing"}, {"ItemOID": "IT.RE.VISITDY", "OrderNumber": 38, "Mandatory": "No", "Role": "Timing"}, {"ItemOID": "IT.RE.TAETORD", "OrderNumber": 39, "Mandatory": "No", "Role": "Timing"}, {"ItemOID": "IT.RE.EPOCH", "OrderNumber": 40, "Mandatory": "No", "Role": "Timing"}, {"ItemOID": "IT.RE.REDTC", "OrderNumber": 41, "Mandatory": "No", "Role": "Timing"}, {"ItemOID": "IT.RE.REDY", "OrderNumber": 42, "Mandatory": "No", "Role": "Timing"}, {"ItemOID": "IT.RE.RETPT", "OrderNumber": 43, "Mandatory": "No", "Role": "Timing"}, {"ItemOID": "IT.RE.RETPTNUM", "OrderNumber": 44, "Mandatory": "No", "Role": "Timing"}, {"ItemOID": "IT.RE.REELTM", "OrderNumber": 45, "Mandatory": "No", "Role": "Timing"}, {"ItemOID": "IT.RE.RETPTREF", "OrderNumber": 46, "Mandatory": "No", "Role": "Timing"}, {"ItemOID": "IT.RE.RERFTDTC", "OrderNumber": 47, "Mandatory": "No", "Role": "Timing"}], "Class": {"Name": "FINDINGS"}}, {"OID": "IGD.RP", "Name": "RP", "Domain": "RP", "Repeating": "No", "Purpose": "Tabulation", "Structure": "One record per finding or result per time point per visit per subject", "Description": {"TranslatedText": [{"lang": "en", "_content": "Reproductive System Findings"}]}, "ItemRef": [{"ItemOID": "IT.RP.STUDYID", "OrderNumber": 1, "Mandatory": "No", "Role": "Identifier"}, {"ItemOID": "IT.RP.DOMAIN", "OrderNumber": 2, "Mandatory": "No", "Role": "Identifier"}, {"ItemOID": "IT.RP.USUBJID", "OrderNumber": 3, "Mandatory": "No", "Role": "Identifier"}, {"ItemOID": "IT.RP.RPSEQ", "OrderNumber": 4, "Mandatory": "No", "Role": "Identifier"}, {"ItemOID": "IT.RP.RPGRPID", "OrderNumber": 5, "Mandatory": "No", "Role": "Identifier"}, {"ItemOID": "IT.RP.RPREFID", "OrderNumber": 6, "Mandatory": "No", "Role": "Identifier"}, {"ItemOID": "IT.RP.RPSPID", "OrderNumber": 7, "Mandatory": "No", "Role": "Identifier"}, {"ItemOID": "IT.RP.RPLNKID", "OrderNumber": 8, "Mandatory": "No", "Role": "Identifier"}, {"ItemOID": "IT.RP.RPLNKGRP", "OrderNumber": 9, "Mandatory": "No", "Role": "Identifier"}, {"ItemOID": "IT.RP.RPTESTCD", "OrderNumber": 10, "Mandatory": "No", "Role": "Topic"}, {"ItemOID": "IT.RP.RPTEST", "OrderNumber": 11, "Mandatory": "No", "Role": "Synonym Qualifier"}, {"ItemOID": "IT.RP.RPCAT", "OrderNumber": 12, "Mandatory": "No", "Role": "Grouping Qualifier"}, {"ItemOID": "IT.RP.RPSCAT", "OrderNumber": 13, "Mandatory": "No", "Role": "Grouping Qualifier"}, {"ItemOID": "IT.RP.RPORRES", "OrderNumber": 14, "Mandatory": "No", "Role": "Result Qualifier"}, {"ItemOID": "IT.RP.RPORRESU", "OrderNumber": 15, "Mandatory": "No", "Role": "Variable Qualifier"}, {"ItemOID": "IT.RP.RPSTRESC", "OrderNumber": 16, "Mandatory": "No", "Role": "Result Qualifier"}, {"ItemOID": "IT.RP.RPSTRESN", "OrderNumber": 17, "Mandatory": "No", "Role": "Result Qualifier"}, {"ItemOID": "IT.RP.RPSTRESU", "OrderNumber": 18, "Mandatory": "No", "Role": "Variable Qualifier"}, {"ItemOID": "IT.RP.RPSTAT", "OrderNumber": 19, "Mandatory": "No", "Role": "Record Qualifier"}, {"ItemOID": "IT.RP.RPREASND", "OrderNumber": 20, "Mandatory": "No", "Role": "Record Qualifier"}, {"ItemOID": "IT.RP.RPLOBXFL", "OrderNumber": 21, "Mandatory": "No", "Role": "Record Qualifier"}, {"ItemOID": "IT.RP.RPBLFL", "OrderNumber": 22, "Mandatory": "No", "Role": "Record Qualifier"}, {"ItemOID": "IT.RP.RPDRVFL", "OrderNumber": 23, "Mandatory": "No", "Role": "Record Qualifier"}, {"ItemOID": "IT.RP.VISITNUM", "OrderNumber": 24, "Mandatory": "No", "Role": "Timing"}, {"ItemOID": "IT.RP.VISIT", "OrderNumber": 25, "Mandatory": "No", "Role": "Timing"}, {"ItemOID": "IT.RP.VISITDY", "OrderNumber": 26, "Mandatory": "No", "Role": "Timing"}, {"ItemOID": "IT.RP.TAETORD", "OrderNumber": 27, "Mandatory": "No", "Role": "Timing"}, {"ItemOID": "IT.RP.EPOCH", "OrderNumber": 28, "Mandatory": "No", "Role": "Timing"}, {"ItemOID": "IT.RP.RPDTC", "OrderNumber": 29, "Mandatory": "No", "Role": "Timing"}, {"ItemOID": "IT.RP.RPDY", "OrderNumber": 30, "Mandatory": "No", "Role": "Timing"}, {"ItemOID": "IT.RP.RPDUR", "OrderNumber": 31, "Mandatory": "No", "Role": "Timing"}, {"ItemOID": "IT.RP.RPTPT", "OrderNumber": 32, "Mandatory": "No", "Role": "Timing"}, {"ItemOID": "IT.RP.RPTPTNUM", "OrderNumber": 33, "Mandatory": "No", "Role": "Timing"}, {"ItemOID": "IT.RP.RPELTM", "OrderNumber": 34, "Mandatory": "No", "Role": "Timing"}, {"ItemOID": "IT.RP.RPTPTREF", "OrderNumber": 35, "Mandatory": "No", "Role": "Timing"}, {"ItemOID": "IT.RP.RPRFTDTC", "OrderNumber": 36, "Mandatory": "No", "Role": "Timing"}], "Class": {"Name": "FINDINGS"}}, {"OID": "IGD.RS", "Name": "RS", "Domain": "RS", "Repeating": "No", "Purpose": "Tabulation", "Structure": "One record per response assessment or clinical classification assessment per time point per visit per subject per assessor per medical evaluator", "Description": {"TranslatedText": [{"lang": "en", "_content": "Disease Response and Clin Classification"}]}, "ItemRef": [{"ItemOID": "IT.RS.STUDYID", "OrderNumber": 1, "Mandatory": "No", "Role": "Identifier"}, {"ItemOID": "IT.RS.DOMAIN", "OrderNumber": 2, "Mandatory": "No", "Role": "Identifier"}, {"ItemOID": "IT.RS.USUBJID", "OrderNumber": 3, "Mandatory": "No", "Role": "Identifier"}, {"ItemOID": "IT.RS.RSSEQ", "OrderNumber": 4, "Mandatory": "No", "Role": "Identifier"}, {"ItemOID": "IT.RS.RSGRPID", "OrderNumber": 5, "Mandatory": "No", "Role": "Identifier"}, {"ItemOID": "IT.RS.RSREFID", "OrderNumber": 6, "Mandatory": "No", "Role": "Identifier"}, {"ItemOID": "IT.RS.RSSPID", "OrderNumber": 7, "Mandatory": "No", "Role": "Identifier"}, {"ItemOID": "IT.RS.RSLNKID", "OrderNumber": 8, "Mandatory": "No", "Role": "Identifier"}, {"ItemOID": "IT.RS.RSLNKGRP", "OrderNumber": 9, "Mandatory": "No", "Role": "Identifier"}, {"ItemOID": "IT.RS.RSTESTCD", "OrderNumber": 10, "Mandatory": "No", "Role": "Topic"}, {"ItemOID": "IT.RS.RSTEST", "OrderNumber": 11, "Mandatory": "No", "Role": "Synonym Qualifier"}, {"ItemOID": "IT.RS.RSCAT", "OrderNumber": 12, "Mandatory": "No", "Role": "Grouping Qualifier"}, {"ItemOID": "IT.RS.RSSCAT", "OrderNumber": 13, "Mandatory": "No", "Role": "Grouping Qualifier"}, {"ItemOID": "IT.RS.RSORRES", "OrderNumber": 14, "Mandatory": "No", "Role": "Result Qualifier"}, {"ItemOID": "IT.RS.RSORRESU", "OrderNumber": 15, "Mandatory": "No", "Role": "Variable Qualifier"}, {"ItemOID": "IT.RS.RSSTRESC", "OrderNumber": 16, "Mandatory": "No", "Role": "Result Qualifier"}, {"ItemOID": "IT.RS.RSSTRESN", "OrderNumber": 17, "Mandatory": "No", "Role": "Result Qualifier"}, {"ItemOID": "IT.RS.RSSTRESU", "OrderNumber": 18, "Mandatory": "No", "Role": "Variable Qualifier"}, {"ItemOID": "IT.RS.RSSTAT", "OrderNumber": 19, "Mandatory": "No", "Role": "Record Qualifier"}, {"ItemOID": "IT.RS.RSREASND", "OrderNumber": 20, "Mandatory": "No", "Role": "Record Qualifier"}, {"ItemOID": "IT.RS.RSNAM", "OrderNumber": 21, "Mandatory": "No", "Role": "Record Qualifier"}, {"ItemOID": "IT.RS.RSMETHOD", "OrderNumber": 22, "Mandatory": "No", "Role": "Record Qualifier"}, {"ItemOID": "IT.RS.RSLOBXFL", "OrderNumber": 23, "Mandatory": "No", "Role": "Record Qualifier"}, {"ItemOID": "IT.RS.RSBLFL", "OrderNumber": 24, "Mandatory": "No", "Role": "Record Qualifier"}, {"ItemOID": "IT.RS.RSDRVFL", "OrderNumber": 25, "Mandatory": "No", "Role": "Record Qualifier"}, {"ItemOID": "IT.RS.RSEVAL", "OrderNumber": 26, "Mandatory": "No", "Role": "Record Qualifier"}, {"ItemOID": "IT.RS.RSEVALID", "OrderNumber": 27, "Mandatory": "No", "Role": "Variable Qualifier"}, {"ItemOID": "IT.RS.RSACPTFL", "OrderNumber": 28, "Mandatory": "No", "Role": "Record Qualifier"}, {"ItemOID": "IT.RS.VISITNUM", "OrderNumber": 29, "Mandatory": "No", "Role": "Timing"}, {"ItemOID": "IT.RS.VISIT", "OrderNumber": 30, "Mandatory": "No", "Role": "Timing"}, {"ItemOID": "IT.RS.VISITDY", "OrderNumber": 31, "Mandatory": "No", "Role": "Timing"}, {"ItemOID": "IT.RS.TAETORD", "OrderNumber": 32, "Mandatory": "No", "Role": "Timing"}, {"ItemOID": "IT.RS.EPOCH", "OrderNumber": 33, "Mandatory": "No", "Role": "Timing"}, {"ItemOID": "IT.RS.RSDTC", "OrderNumber": 34, "Mandatory": "No", "Role": "Timing"}, {"ItemOID": "IT.RS.RSDY", "OrderNumber": 35, "Mandatory": "No", "Role": "Timing"}, {"ItemOID": "IT.RS.RSTPT", "OrderNumber": 36, "Mandatory": "No", "Role": "Timing"}, {"ItemOID": "IT.RS.RSTPTNUM", "OrderNumber": 37, "Mandatory": "No", "Role": "Timing"}, {"ItemOID": "IT.RS.RSELTM", "OrderNumber": 38, "Mandatory": "No", "Role": "Timing"}, {"ItemOID": "IT.RS.RSTPTREF", "OrderNumber": 39, "Mandatory": "No", "Role": "Timing"}, {"ItemOID": "IT.RS.RSRFTDTC", "OrderNumber": 40, "Mandatory": "No", "Role": "Timing"}, {"ItemOID": "IT.RS.RSEVLINT", "OrderNumber": 41, "Mandatory": "No", "Role": "Timing"}, {"ItemOID": "IT.RS.RSEVINTX", "OrderNumber": 42, "Mandatory": "No", "Role": "Timing"}, {"ItemOID": "IT.RS.RSSTRTPT", "OrderNumber": 43, "Mandatory": "No", "Role": "Timing"}, {"ItemOID": "IT.RS.RSSTTPT", "OrderNumber": 44, "Mandatory": "No", "Role": "Timing"}, {"ItemOID": "IT.RS.RSENRTPT", "OrderNumber": 45, "Mandatory": "No", "Role": "Timing"}, {"ItemOID": "IT.RS.RSENTPT", "OrderNumber": 46, "Mandatory": "No", "Role": "Timing"}], "Class": {"Name": "FINDINGS"}}, {"OID": "IGD.SC", "Name": "SC", "Domain": "SC", "Repeating": "No", "Purpose": "Tabulation", "Structure": "One record per characteristic per visit per subject.", "Description": {"TranslatedText": [{"lang": "en", "_content": "Subject Characteristics"}]}, "ItemRef": [{"ItemOID": "IT.SC.STUDYID", "OrderNumber": 1, "Mandatory": "No", "Role": "Identifier"}, {"ItemOID": "IT.SC.DOMAIN", "OrderNumber": 2, "Mandatory": "No", "Role": "Identifier"}, {"ItemOID": "IT.SC.USUBJID", "OrderNumber": 3, "Mandatory": "No", "Role": "Identifier"}, {"ItemOID": "IT.SC.SCSEQ", "OrderNumber": 4, "Mandatory": "No", "Role": "Identifier"}, {"ItemOID": "IT.SC.SCGRPID", "OrderNumber": 5, "Mandatory": "No", "Role": "Identifier"}, {"ItemOID": "IT.SC.SCSPID", "OrderNumber": 6, "Mandatory": "No", "Role": "Identifier"}, {"ItemOID": "IT.SC.SCTESTCD", "OrderNumber": 7, "Mandatory": "No", "Role": "Topic"}, {"ItemOID": "IT.SC.SCTEST", "OrderNumber": 8, "Mandatory": "No", "Role": "Synonym Qualifier"}, {"ItemOID": "IT.SC.SCCAT", "OrderNumber": 9, "Mandatory": "No", "Role": "Grouping Qualifier"}, {"ItemOID": "IT.SC.SCSCAT", "OrderNumber": 10, "Mandatory": "No", "Role": "Grouping Qualifier"}, {"ItemOID": "IT.SC.SCORRES", "OrderNumber": 11, "Mandatory": "No", "Role": "Result Qualifier"}, {"ItemOID": "IT.SC.SCORRESU", "OrderNumber": 12, "Mandatory": "No", "Role": "Variable Qualifier"}, {"ItemOID": "IT.SC.SCSTRESC", "OrderNumber": 13, "Mandatory": "No", "Role": "Result Qualifier"}, {"ItemOID": "IT.SC.SCSTRESN", "OrderNumber": 14, "Mandatory": "No", "Role": "Result Qualifier"}, {"ItemOID": "IT.SC.SCSTRESU", "OrderNumber": 15, "Mandatory": "No", "Role": "Variable Qualifier"}, {"ItemOID": "IT.SC.SCSTAT", "OrderNumber": 16, "Mandatory": "No", "Role": "Record Qualifier"}, {"ItemOID": "IT.SC.SCREASND", "OrderNumber": 17, "Mandatory": "No", "Role": "Record Qualifier"}, {"ItemOID": "IT.SC.VISITNUM", "OrderNumber": 18, "Mandatory": "No", "Role": "Timing"}, {"ItemOID": "IT.SC.VISIT", "OrderNumber": 19, "Mandatory": "No", "Role": "Timing"}, {"ItemOID": "IT.SC.VISITDY", "OrderNumber": 20, "Mandatory": "No", "Role": "Timing"}, {"ItemOID": "IT.SC.TAETORD", "OrderNumber": 21, "Mandatory": "No", "Role": "Timing"}, {"ItemOID": "IT.SC.EPOCH", "OrderNumber": 22, "Mandatory": "No", "Role": "Timing"}, {"ItemOID": "IT.SC.SCDTC", "OrderNumber": 23, "Mandatory": "No", "Role": "Timing"}, {"ItemOID": "IT.SC.SCDY", "OrderNumber": 24, "Mandatory": "No", "Role": "Timing"}], "Class": {"Name": "FINDINGS"}}, {"OID": "IGD.SS", "Name": "SS", "Domain": "SS", "Repeating": "No", "Purpose": "Tabulation", "Structure": "One record per status per visit per subject", "Description": {"TranslatedText": [{"lang": "en", "_content": "Subject Status"}]}, "ItemRef": [{"ItemOID": "IT.SS.STUDYID", "OrderNumber": 1, "Mandatory": "No", "Role": "Identifier"}, {"ItemOID": "IT.SS.DOMAIN", "OrderNumber": 2, "Mandatory": "No", "Role": "Identifier"}, {"ItemOID": "IT.SS.USUBJID", "OrderNumber": 3, "Mandatory": "No", "Role": "Identifier"}, {"ItemOID": "IT.SS.SSSEQ", "OrderNumber": 4, "Mandatory": "No", "Role": "Identifier"}, {"ItemOID": "IT.SS.SSGRPID", "OrderNumber": 5, "Mandatory": "No", "Role": "Identifier"}, {"ItemOID": "IT.SS.SSSPID", "OrderNumber": 6, "Mandatory": "No", "Role": "Identifier"}, {"ItemOID": "IT.SS.SSTESTCD", "OrderNumber": 7, "Mandatory": "No", "Role": "Topic"}, {"ItemOID": "IT.SS.SSTEST", "OrderNumber": 8, "Mandatory": "No", "Role": "Synonym Qualifier"}, {"ItemOID": "IT.SS.SSCAT", "OrderNumber": 9, "Mandatory": "No", "Role": "Grouping Qualifier"}, {"ItemOID": "IT.SS.SSSCAT", "OrderNumber": 10, "Mandatory": "No", "Role": "Grouping Qualifier"}, {"ItemOID": "IT.SS.SSORRES", "OrderNumber": 11, "Mandatory": "No", "Role": "Result Qualifier"}, {"ItemOID": "IT.SS.SSSTRESC", "OrderNumber": 12, "Mandatory": "No", "Role": "Result Qualifier"}, {"ItemOID": "IT.SS.SSSTAT", "OrderNumber": 13, "Mandatory": "No", "Role": "Record Qualifier"}, {"ItemOID": "IT.SS.SSREASND", "OrderNumber": 14, "Mandatory": "No", "Role": "Record Qualifier"}, {"ItemOID": "IT.SS.SSEVAL", "OrderNumber": 15, "Mandatory": "No", "Role": "Record Qualifier"}, {"ItemOID": "IT.SS.VISITNUM", "OrderNumber": 16, "Mandatory": "No", "Role": "Timing"}, {"ItemOID": "IT.SS.VISIT", "OrderNumber": 17, "Mandatory": "No", "Role": "Timing"}, {"ItemOID": "IT.SS.VISITDY", "OrderNumber": 18, "Mandatory": "No", "Role": "Timing"}, {"ItemOID": "IT.SS.TAETORD", "OrderNumber": 19, "Mandatory": "No", "Role": "Timing"}, {"ItemOID": "IT.SS.EPOCH", "OrderNumber": 20, "Mandatory": "No", "Role": "Timing"}, {"ItemOID": "IT.SS.SSDTC", "OrderNumber": 21, "Mandatory": "No", "Role": "Timing"}, {"ItemOID": "IT.SS.SSDY", "OrderNumber": 22, "Mandatory": "No", "Role": "Timing"}], "Class": {"Name": "FINDINGS"}}, {"OID": "IGD.TR", "Name": "TR", "Domain": "TR", "Repeating": "No", "Purpose": "Tabulation", "Structure": "One record per tumor measurement/assessment per visit per subject per assessor", "Description": {"TranslatedText": [{"lang": "en", "_content": "Tumor/Lesion Results"}]}, "ItemRef": [{"ItemOID": "IT.TR.STUDYID", "OrderNumber": 1, "Mandatory": "No", "Role": "Identifier"}, {"ItemOID": "IT.TR.DOMAIN", "OrderNumber": 2, "Mandatory": "No", "Role": "Identifier"}, {"ItemOID": "IT.TR.USUBJID", "OrderNumber": 3, "Mandatory": "No", "Role": "Identifier"}, {"ItemOID": "IT.TR.TRSEQ", "OrderNumber": 4, "Mandatory": "No", "Role": "Identifier"}, {"ItemOID": "IT.TR.TRGRPID", "OrderNumber": 5, "Mandatory": "No", "Role": "Identifier"}, {"ItemOID": "IT.TR.TRREFID", "OrderNumber": 6, "Mandatory": "No", "Role": "Identifier"}, {"ItemOID": "IT.TR.TRSPID", "OrderNumber": 7, "Mandatory": "No", "Role": "Identifier"}, {"ItemOID": "IT.TR.TRLNKID", "OrderNumber": 8, "Mandatory": "No", "Role": "Identifier"}, {"ItemOID": "IT.TR.TRLNKGRP", "OrderNumber": 9, "Mandatory": "No", "Role": "Identifier"}, {"ItemOID": "IT.TR.TRTESTCD", "OrderNumber": 10, "Mandatory": "No", "Role": "Topic"}, {"ItemOID": "IT.TR.TRTEST", "OrderNumber": 11, "Mandatory": "No", "Role": "Synonym Qualifier"}, {"ItemOID": "IT.TR.TRORRES", "OrderNumber": 12, "Mandatory": "No", "Role": "Result Qualifier"}, {"ItemOID": "IT.TR.TRORRESU", "OrderNumber": 13, "Mandatory": "No", "Role": "Variable Qualifier"}, {"ItemOID": "IT.TR.TRSTRESC", "OrderNumber": 14, "Mandatory": "No", "Role": "Result Qualifier"}, {"ItemOID": "IT.TR.TRSTRESN", "OrderNumber": 15, "Mandatory": "No", "Role": "Result Qualifier"}, {"ItemOID": "IT.TR.TRSTRESU", "OrderNumber": 16, "Mandatory": "No", "Role": "Variable Qualifier"}, {"ItemOID": "IT.TR.TRSTAT", "OrderNumber": 17, "Mandatory": "No", "Role": "Record Qualifier"}, {"ItemOID": "IT.TR.TRREASND", "OrderNumber": 18, "Mandatory": "No", "Role": "Record Qualifier"}, {"ItemOID": "IT.TR.TRNAM", "OrderNumber": 19, "Mandatory": "No", "Role": "Record Qualifier"}, {"ItemOID": "IT.TR.TRMETHOD", "OrderNumber": 20, "Mandatory": "No", "Role": "Record Qualifier"}, {"ItemOID": "IT.TR.TRLOBXFL", "OrderNumber": 21, "Mandatory": "No", "Role": "Record Qualifier"}, {"ItemOID": "IT.TR.TRBLFL", "OrderNumber": 22, "Mandatory": "No", "Role": "Record Qualifier"}, {"ItemOID": "IT.TR.TREVAL", "OrderNumber": 23, "Mandatory": "No", "Role": "Record Qualifier"}, {"ItemOID": "IT.TR.TREVALID", "OrderNumber": 24, "Mandatory": "No", "Role": "Variable Qualifier"}, {"ItemOID": "IT.TR.TRACPTFL", "OrderNumber": 25, "Mandatory": "No", "Role": "Record Qualifier"}, {"ItemOID": "IT.TR.VISITNUM", "OrderNumber": 26, "Mandatory": "No", "Role": "Timing"}, {"ItemOID": "IT.TR.VISIT", "OrderNumber": 27, "Mandatory": "No", "Role": "Timing"}, {"ItemOID": "IT.TR.VISITDY", "OrderNumber": 28, "Mandatory": "No", "Role": "Timing"}, {"ItemOID": "IT.TR.TAETORD", "OrderNumber": 29, "Mandatory": "No", "Role": "Timing"}, {"ItemOID": "IT.TR.EPOCH", "OrderNumber": 30, "Mandatory": "No", "Role": "Timing"}, {"ItemOID": "IT.TR.TRDTC", "OrderNumber": 31, "Mandatory": "No", "Role": "Timing"}, {"ItemOID": "IT.TR.TRDY", "OrderNumber": 32, "Mandatory": "No", "Role": "Timing"}], "Class": {"Name": "FINDINGS"}}, {"OID": "IGD.TU", "Name": "TU", "Domain": "TU", "Repeating": "No", "Purpose": "Tabulation", "Structure": "One record per identified tumor per subject per assessor", "Description": {"TranslatedText": [{"lang": "en", "_content": "Tumor/Lesion Identification"}]}, "ItemRef": [{"ItemOID": "IT.TU.STUDYID", "OrderNumber": 1, "Mandatory": "No", "Role": "Identifier"}, {"ItemOID": "IT.TU.DOMAIN", "OrderNumber": 2, "Mandatory": "No", "Role": "Identifier"}, {"ItemOID": "IT.TU.USUBJID", "OrderNumber": 3, "Mandatory": "No", "Role": "Identifier"}, {"ItemOID": "IT.TU.TUSEQ", "OrderNumber": 4, "Mandatory": "No", "Role": "Identifier"}, {"ItemOID": "IT.TU.TUGRPID", "OrderNumber": 5, "Mandatory": "No", "Role": "Identifier"}, {"ItemOID": "IT.TU.TUREFID", "OrderNumber": 6, "Mandatory": "No", "Role": "Identifier"}, {"ItemOID": "IT.TU.TUSPID", "OrderNumber": 7, "Mandatory": "No", "Role": "Identifier"}, {"ItemOID": "IT.TU.TULNKID", "OrderNumber": 8, "Mandatory": "No", "Role": "Identifier"}, {"ItemOID": "IT.TU.TULNKGRP", "OrderNumber": 9, "Mandatory": "No", "Role": "Identifier"}, {"ItemOID": "IT.TU.TUTESTCD", "OrderNumber": 10, "Mandatory": "No", "Role": "Topic"}, {"ItemOID": "IT.TU.TUTEST", "OrderNumber": 11, "Mandatory": "No", "Role": "Synonym Qualifier"}, {"ItemOID": "IT.TU.TUORRES", "OrderNumber": 12, "Mandatory": "No", "Role": "Result Qualifier"}, {"ItemOID": "IT.TU.TUSTRESC", "OrderNumber": 13, "Mandatory": "No", "Role": "Result Qualifier"}, {"ItemOID": "IT.TU.TUNAM", "OrderNumber": 14, "Mandatory": "No", "Role": "Record Qualifier"}, {"ItemOID": "IT.TU.TULOC", "OrderNumber": 15, "Mandatory": "No", "Role": "Record Qualifier"}, {"ItemOID": "IT.TU.TULAT", "OrderNumber": 16, "Mandatory": "No", "Role": "Variable Qualifier"}, {"ItemOID": "IT.TU.TUDIR", "OrderNumber": 17, "Mandatory": "No", "Role": "Variable Qualifier"}, {"ItemOID": "IT.TU.TUPORTOT", "OrderNumber": 18, "Mandatory": "No", "Role": "Variable Qualifier"}, {"ItemOID": "IT.TU.TUMETHOD", "OrderNumber": 19, "Mandatory": "No", "Role": "Record Qualifier"}, {"ItemOID": "IT.TU.TULOBXFL", "OrderNumber": 20, "Mandatory": "No", "Role": "Record Qualifier"}, {"ItemOID": "IT.TU.TUBLFL", "OrderNumber": 21, "Mandatory": "No", "Role": "Record Qualifier"}, {"ItemOID": "IT.TU.TUEVAL", "OrderNumber": 22, "Mandatory": "No", "Role": "Record Qualifier"}, {"ItemOID": "IT.TU.TUEVALID", "OrderNumber": 23, "Mandatory": "No", "Role": "Variable Qualifier"}, {"ItemOID": "IT.TU.TUACPTFL", "OrderNumber": 24, "Mandatory": "No", "Role": "Record Qualifier"}, {"ItemOID": "IT.TU.VISITNUM", "OrderNumber": 25, "Mandatory": "No", "Role": "Timing"}, {"ItemOID": "IT.TU.VISIT", "OrderNumber": 26, "Mandatory": "No", "Role": "Timing"}, {"ItemOID": "IT.TU.VISITDY", "OrderNumber": 27, "Mandatory": "No", "Role": "Timing"}, {"ItemOID": "IT.TU.TAETORD", "OrderNumber": 28, "Mandatory": "No", "Role": "Timing"}, {"ItemOID": "IT.TU.EPOCH", "OrderNumber": 29, "Mandatory": "No", "Role": "Timing"}, {"ItemOID": "IT.TU.TUDTC", "OrderNumber": 30, "Mandatory": "No", "Role": "Timing"}, {"ItemOID": "IT.TU.TUDY", "OrderNumber": 31, "Mandatory": "No", "Role": "Timing"}], "Class": {"Name": "FINDINGS"}}, {"OID": "IGD.UR", "Name": "UR", "Domain": "UR", "Repeating": "No", "Purpose": "Tabulation", "Structure": "One record per finding per location per per visit per subject", "Description": {"TranslatedText": [{"lang": "en", "_content": "Urinary System Findings"}]}, "ItemRef": [{"ItemOID": "IT.UR.STUDYID", "OrderNumber": 1, "Mandatory": "No", "Role": "Identifier"}, {"ItemOID": "IT.UR.DOMAIN", "OrderNumber": 2, "Mandatory": "No", "Role": "Identifier"}, {"ItemOID": "IT.UR.USUBJID", "OrderNumber": 3, "Mandatory": "No", "Role": "Identifier"}, {"ItemOID": "IT.UR.URSEQ", "OrderNumber": 4, "Mandatory": "No", "Role": "Identifier"}, {"ItemOID": "IT.UR.URGRPID", "OrderNumber": 5, "Mandatory": "No", "Role": "Identifier"}, {"ItemOID": "IT.UR.URREFID", "OrderNumber": 6, "Mandatory": "No", "Role": "Identifier"}, {"ItemOID": "IT.UR.URSPID", "OrderNumber": 7, "Mandatory": "No", "Role": "Identifier"}, {"ItemOID": "IT.UR.URLNKID", "OrderNumber": 8, "Mandatory": "No", "Role": "Identifier"}, {"ItemOID": "IT.UR.URLNKGRP", "OrderNumber": 9, "Mandatory": "No", "Role": "Identifier"}, {"ItemOID": "IT.UR.URTESTCD", "OrderNumber": 10, "Mandatory": "No", "Role": "Topic"}, {"ItemOID": "IT.UR.URTEST", "OrderNumber": 11, "Mandatory": "No", "Role": "Synonym Qualifier"}, {"ItemOID": "IT.UR.URTSTDTL", "OrderNumber": 12, "Mandatory": "No", "Role": "Variable Qualifier"}, {"ItemOID": "IT.UR.URCAT", "OrderNumber": 13, "Mandatory": "No", "Role": "Grouping Qualifier"}, {"ItemOID": "IT.UR.URSCAT", "OrderNumber": 14, "Mandatory": "No", "Role": "Grouping Qualifier"}, {"ItemOID": "IT.UR.URORRES", "OrderNumber": 15, "Mandatory": "No", "Role": "Result Qualifier"}, {"ItemOID": "IT.UR.URORRESU", "OrderNumber": 16, "Mandatory": "No", "Role": "Variable Qualifier"}, {"ItemOID": "IT.UR.URSTRESC", "OrderNumber": 17, "Mandatory": "No", "Role": "Result Qualifier"}, {"ItemOID": "IT.UR.URSTRESN", "OrderNumber": 18, "Mandatory": "No", "Role": "Result Qualifier"}, {"ItemOID": "IT.UR.URSTRESU", "OrderNumber": 19, "Mandatory": "No", "Role": "Variable Qualifier"}, {"ItemOID": "IT.UR.URRESCAT", "OrderNumber": 20, "Mandatory": "No", "Role": "Variable Qualifier"}, {"ItemOID": "IT.UR.URSTAT", "OrderNumber": 21, "Mandatory": "No", "Role": "Record Qualifier"}, {"ItemOID": "IT.UR.URREASND", "OrderNumber": 22, "Mandatory": "No", "Role": "Record Qualifier"}, {"ItemOID": "IT.UR.URLOC", "OrderNumber": 23, "Mandatory": "No", "Role": "Record Qualifier"}, {"ItemOID": "IT.UR.URLAT", "OrderNumber": 24, "Mandatory": "No", "Role": "Variable Qualifier"}, {"ItemOID": "IT.UR.URDIR", "OrderNumber": 25, "Mandatory": "No", "Role": "Variable Qualifier"}, {"ItemOID": "IT.UR.URMETHOD", "OrderNumber": 26, "Mandatory": "No", "Role": "Record Qualifier"}, {"ItemOID": "IT.UR.URLOBXFL", "OrderNumber": 27, "Mandatory": "No", "Role": "Record Qualifier"}, {"ItemOID": "IT.UR.URBLFL", "OrderNumber": 28, "Mandatory": "No", "Role": "Record Qualifier"}, {"ItemOID": "IT.UR.URDRVFL", "OrderNumber": 29, "Mandatory": "No", "Role": "Record Qualifier"}, {"ItemOID": "IT.UR.UREVAL", "OrderNumber": 30, "Mandatory": "No", "Role": "Record Qualifier"}, {"ItemOID": "IT.UR.UREVALID", "OrderNumber": 31, "Mandatory": "No", "Role": "Variable Qualifier"}, {"ItemOID": "IT.UR.VISITNUM", "OrderNumber": 32, "Mandatory": "No", "Role": "Timing"}, {"ItemOID": "IT.UR.VISIT", "OrderNumber": 33, "Mandatory": "No", "Role": "Timing"}, {"ItemOID": "IT.UR.VISITDY", "OrderNumber": 34, "Mandatory": "No", "Role": "Timing"}, {"ItemOID": "IT.UR.TAETORD", "OrderNumber": 35, "Mandatory": "No", "Role": "Timing"}, {"ItemOID": "IT.UR.EPOCH", "OrderNumber": 36, "Mandatory": "No", "Role": "Timing"}, {"ItemOID": "IT.UR.URDTC", "OrderNumber": 37, "Mandatory": "No", "Role": "Timing"}, {"ItemOID": "IT.UR.URDY", "OrderNumber": 38, "Mandatory": "No", "Role": "Timing"}, {"ItemOID": "IT.UR.URTPT", "OrderNumber": 39, "Mandatory": "No", "Role": "Timing"}, {"ItemOID": "IT.UR.URTPTNUM", "OrderNumber": 40, "Mandatory": "No", "Role": "Timing"}, {"ItemOID": "IT.UR.URELTM", "OrderNumber": 41, "Mandatory": "No", "Role": "Timing"}, {"ItemOID": "IT.UR.URTPTREF", "OrderNumber": 42, "Mandatory": "No", "Role": "Timing"}, {"ItemOID": "IT.UR.URRFTDTC", "OrderNumber": 43, "Mandatory": "No", "Role": "Timing"}], "Class": {"Name": "FINDINGS"}}, {"OID": "IGD.VS", "Name": "VS", "Domain": "VS", "Repeating": "No", "Purpose": "Tabulation", "Structure": "One record per vital sign measurement per time point per visit per subject", "Description": {"TranslatedText": [{"lang": "en", "_content": "Vital Signs"}]}, "ItemRef": [{"ItemOID": "IT.VS.STUDYID", "OrderNumber": 1, "Mandatory": "No", "Role": "Identifier"}, {"ItemOID": "IT.VS.DOMAIN", "OrderNumber": 2, "Mandatory": "No", "Role": "Identifier"}, {"ItemOID": "IT.VS.USUBJID", "OrderNumber": 3, "Mandatory": "No", "Role": "Identifier"}, {"ItemOID": "IT.VS.VSSEQ", "OrderNumber": 4, "Mandatory": "No", "Role": "Identifier"}, {"ItemOID": "IT.VS.VSGRPID", "OrderNumber": 5, "Mandatory": "No", "Role": "Identifier"}, {"ItemOID": "IT.VS.VSSPID", "OrderNumber": 6, "Mandatory": "No", "Role": "Identifier"}, {"ItemOID": "IT.VS.VSTESTCD", "OrderNumber": 7, "Mandatory": "No", "Role": "Topic"}, {"ItemOID": "IT.VS.VSTEST", "OrderNumber": 8, "Mandatory": "No", "Role": "Synonym Qualifier"}, {"ItemOID": "IT.VS.VSCAT", "OrderNumber": 9, "Mandatory": "No", "Role": "Grouping Qualifier"}, {"ItemOID": "IT.VS.VSSCAT", "OrderNumber": 10, "Mandatory": "No", "Role": "Grouping Qualifier"}, {"ItemOID": "IT.VS.VSPOS", "OrderNumber": 11, "Mandatory": "No", "Role": "Record Qualifier"}, {"ItemOID": "IT.VS.VSORRES", "OrderNumber": 12, "Mandatory": "No", "Role": "Result Qualifier"}, {"ItemOID": "IT.VS.VSORRESU", "OrderNumber": 13, "Mandatory": "No", "Role": "Variable Qualifier"}, {"ItemOID": "IT.VS.VSSTRESC", "OrderNumber": 14, "Mandatory": "No", "Role": "Result Qualifier"}, {"ItemOID": "IT.VS.VSSTRESN", "OrderNumber": 15, "Mandatory": "No", "Role": "Result Qualifier"}, {"ItemOID": "IT.VS.VSSTRESU", "OrderNumber": 16, "Mandatory": "No", "Role": "Variable Qualifier"}, {"ItemOID": "IT.VS.VSSTAT", "OrderNumber": 17, "Mandatory": "No", "Role": "Record Qualifier"}, {"ItemOID": "IT.VS.VSREASND", "OrderNumber": 18, "Mandatory": "No", "Role": "Record Qualifier"}, {"ItemOID": "IT.VS.VSLOC", "OrderNumber": 19, "Mandatory": "No", "Role": "Record Qualifier"}, {"ItemOID": "IT.VS.VSLAT", "OrderNumber": 20, "Mandatory": "No", "Role": "Result Qualifier"}, {"ItemOID": "IT.VS.VSLOBXFL", "OrderNumber": 21, "Mandatory": "No", "Role": "Record Qualifier"}, {"ItemOID": "IT.VS.VSBLFL", "OrderNumber": 22, "Mandatory": "No", "Role": "Record Qualifier"}, {"ItemOID": "IT.VS.VSDRVFL", "OrderNumber": 23, "Mandatory": "No", "Role": "Record Qualifier"}, {"ItemOID": "IT.VS.VSTOX", "OrderNumber": 24, "Mandatory": "No", "Role": "Variable Qualifier"}, {"ItemOID": "IT.VS.VSTOXGR", "OrderNumber": 25, "Mandatory": "No", "Role": "Record Qualifier"}, {"ItemOID": "IT.VS.VSCLSIG", "OrderNumber": 26, "Mandatory": "No", "Role": "Record Qualifier"}, {"ItemOID": "IT.VS.VISITNUM", "OrderNumber": 27, "Mandatory": "No", "Role": "Timing"}, {"ItemOID": "IT.VS.VISIT", "OrderNumber": 28, "Mandatory": "No", "Role": "Timing"}, {"ItemOID": "IT.VS.VISITDY", "OrderNumber": 29, "Mandatory": "No", "Role": "Timing"}, {"ItemOID": "IT.VS.TAETORD", "OrderNumber": 30, "Mandatory": "No", "Role": "Timing"}, {"ItemOID": "IT.VS.EPOCH", "OrderNumber": 31, "Mandatory": "No", "Role": "Timing"}, {"ItemOID": "IT.VS.VSDTC", "OrderNumber": 32, "Mandatory": "No", "Role": "Timing"}, {"ItemOID": "IT.VS.VSDY", "OrderNumber": 33, "Mandatory": "No", "Role": "Timing"}, {"ItemOID": "IT.VS.VSTPT", "OrderNumber": 34, "Mandatory": "No", "Role": "Timing"}, {"ItemOID": "IT.VS.VSTPTNUM", "OrderNumber": 35, "Mandatory": "No", "Role": "Timing"}, {"ItemOID": "IT.VS.VSELTM", "OrderNumber": 36, "Mandatory": "No", "Role": "Timing"}, {"ItemOID": "IT.VS.VSTPTREF", "OrderNumber": 37, "Mandatory": "No", "Role": "Timing"}, {"ItemOID": "IT.VS.VSRFTDTC", "OrderNumber": 38, "Mandatory": "No", "Role": "Timing"}], "Class": {"Name": "FINDINGS"}}, {"OID": "IGD.FA", "Name": "FA", "Domain": "FA", "Repeating": "No", "Purpose": "Tabulation", "Structure": "One record per finding, per object, per time point, per visit per subject", "Description": {"TranslatedText": [{"lang": "en", "_content": "Findings About Events or Interventions"}]}, "ItemRef": [{"ItemOID": "IT.FA.STUDYID", "OrderNumber": 1, "Mandatory": "No", "Role": "Identifier"}, {"ItemOID": "IT.FA.DOMAIN", "OrderNumber": 2, "Mandatory": "No", "Role": "Identifier"}, {"ItemOID": "IT.FA.USUBJID", "OrderNumber": 3, "Mandatory": "No", "Role": "Identifier"}, {"ItemOID": "IT.FA.FASEQ", "OrderNumber": 4, "Mandatory": "No", "Role": "Identifier"}, {"ItemOID": "IT.FA.FAGRPID", "OrderNumber": 5, "Mandatory": "No", "Role": "Identifier"}, {"ItemOID": "IT.FA.FASPID", "OrderNumber": 6, "Mandatory": "No", "Role": "Identifier"}, {"ItemOID": "IT.FA.FATESTCD", "OrderNumber": 7, "Mandatory": "No", "Role": "Topic"}, {"ItemOID": "IT.FA.FATEST", "OrderNumber": 8, "Mandatory": "No", "Role": "Synonym Qualifier"}, {"ItemOID": "IT.FA.FAOBJ", "OrderNumber": 9, "Mandatory": "No", "Role": "Record Qualifier"}, {"ItemOID": "IT.FA.FACAT", "OrderNumber": 10, "Mandatory": "No", "Role": "Grouping Qualifier"}, {"ItemOID": "IT.FA.FASCAT", "OrderNumber": 11, "Mandatory": "No", "Role": "Grouping Qualifier"}, {"ItemOID": "IT.FA.FAORRES", "OrderNumber": 12, "Mandatory": "No", "Role": "Result Qualifier"}, {"ItemOID": "IT.FA.FAORRESU", "OrderNumber": 13, "Mandatory": "No", "Role": "Variable Qualifier"}, {"ItemOID": "IT.FA.FASTRESC", "OrderNumber": 14, "Mandatory": "No", "Role": "Result Qualifier"}, {"ItemOID": "IT.FA.FASTRESN", "OrderNumber": 15, "Mandatory": "No", "Role": "Result Qualifier"}, {"ItemOID": "IT.FA.FASTRESU", "OrderNumber": 16, "Mandatory": "No", "Role": "Variable Qualifier"}, {"ItemOID": "IT.FA.FASTAT", "OrderNumber": 17, "Mandatory": "No", "Role": "Record Qualifier"}, {"ItemOID": "IT.FA.FAREASND", "OrderNumber": 18, "Mandatory": "No", "Role": "Record Qualifier"}, {"ItemOID": "IT.FA.FALOC", "OrderNumber": 19, "Mandatory": "No", "Role": "Record Qualifier"}, {"ItemOID": "IT.FA.FALAT", "OrderNumber": 20, "Mandatory": "No", "Role": "Variable Qualifier"}, {"ItemOID": "IT.FA.FALOBXFL", "OrderNumber": 21, "Mandatory": "No", "Role": "Record Qualifier"}, {"ItemOID": "IT.FA.FABLFL", "OrderNumber": 22, "Mandatory": "No", "Role": "Record Qualifier"}, {"ItemOID": "IT.FA.FAEVAL", "OrderNumber": 23, "Mandatory": "No", "Role": "Record Qualifier"}, {"ItemOID": "IT.FA.VISITNUM", "OrderNumber": 24, "Mandatory": "No", "Role": "Timing"}, {"ItemOID": "IT.FA.VISIT", "OrderNumber": 25, "Mandatory": "No", "Role": "Timing"}, {"ItemOID": "IT.FA.VISITDY", "OrderNumber": 26, "Mandatory": "No", "Role": "Timing"}, {"ItemOID": "IT.FA.TAETORD", "OrderNumber": 27, "Mandatory": "No", "Role": "Timing"}, {"ItemOID": "IT.FA.EPOCH", "OrderNumber": 28, "Mandatory": "No", "Role": "Timing"}, {"ItemOID": "IT.FA.FADTC", "OrderNumber": 29, "Mandatory": "No", "Role": "Timing"}, {"ItemOID": "IT.FA.FADY", "OrderNumber": 30, "Mandatory": "No", "Role": "Timing"}], "Class": {"Name": "FINDINGS ABOUT"}}, {"OID": "IGD.SR", "Name": "SR", "Domain": "SR", "Repeating": "No", "Purpose": "Tabulation", "Structure": "One record per finding, per object, per time point, per visit per subject", "Description": {"TranslatedText": [{"lang": "en", "_content": "Skin Response"}]}, "ItemRef": [{"ItemOID": "IT.SR.STUDYID", "OrderNumber": 1, "Mandatory": "No", "Role": "Identifier"}, {"ItemOID": "IT.SR.DOMAIN", "OrderNumber": 2, "Mandatory": "No", "Role": "Identifier"}, {"ItemOID": "IT.SR.USUBJID", "OrderNumber": 3, "Mandatory": "No", "Role": "Identifier"}, {"ItemOID": "IT.SR.SRSEQ", "OrderNumber": 4, "Mandatory": "No", "Role": "Identifier"}, {"ItemOID": "IT.SR.SRGRPID", "OrderNumber": 5, "Mandatory": "No", "Role": "Identifier"}, {"ItemOID": "IT.SR.SRREFID", "OrderNumber": 6, "Mandatory": "No", "Role": "Identifier"}, {"ItemOID": "IT.SR.SRSPID", "OrderNumber": 7, "Mandatory": "No", "Role": "Identifier"}, {"ItemOID": "IT.SR.SRTESTCD", "OrderNumber": 8, "Mandatory": "No", "Role": "Topic"}, {"ItemOID": "IT.SR.SRTEST", "OrderNumber": 9, "Mandatory": "No", "Role": "Synonym Qualifier"}, {"ItemOID": "IT.SR.SROBJ", "OrderNumber": 10, "Mandatory": "No", "Role": "Record Qualifier"}, {"ItemOID": "IT.SR.SRCAT", "OrderNumber": 11, "Mandatory": "No", "Role": "Grouping Qualifier"}, {"ItemOID": "IT.SR.SRSCAT", "OrderNumber": 12, "Mandatory": "No", "Role": "Grouping Qualifier"}, {"ItemOID": "IT.SR.SRORRES", "OrderNumber": 13, "Mandatory": "No", "Role": "Result Qualifier"}, {"ItemOID": "IT.SR.SRORRESU", "OrderNumber": 14, "Mandatory": "No", "Role": "Variable Qualifier"}, {"ItemOID": "IT.SR.SRSTRESC", "OrderNumber": 15, "Mandatory": "No", "Role": "Result Qualifier"}, {"ItemOID": "IT.SR.SRSTRESN", "OrderNumber": 16, "Mandatory": "No", "Role": "Result Qualifier"}, {"ItemOID": "IT.SR.SRSTRESU", "OrderNumber": 17, "Mandatory": "No", "Role": "Variable Qualifier"}, {"ItemOID": "IT.SR.SRSTAT", "OrderNumber": 18, "Mandatory": "No", "Role": "Record Qualifier"}, {"ItemOID": "IT.SR.SRREASND", "OrderNumber": 19, "Mandatory": "No", "Role": "Record Qualifier"}, {"ItemOID": "IT.SR.SRNAM", "OrderNumber": 20, "Mandatory": "No", "Role": "Record Qualifier"}, {"ItemOID": "IT.SR.SRSPEC", "OrderNumber": 21, "Mandatory": "No", "Role": "Record Qualifier"}, {"ItemOID": "IT.SR.SRLOC", "OrderNumber": 22, "Mandatory": "No", "Role": "Record Qualifier"}, {"ItemOID": "IT.SR.SRLAT", "OrderNumber": 23, "Mandatory": "No", "Role": "Variable Qualifier"}, {"ItemOID": "IT.SR.SRMETHOD", "OrderNumber": 24, "Mandatory": "No", "Role": "Record Qualifier"}, {"ItemOID": "IT.SR.SRLOBXFL", "OrderNumber": 25, "Mandatory": "No", "Role": "Record Qualifier"}, {"ItemOID": "IT.SR.SRBLFL", "OrderNumber": 26, "Mandatory": "No", "Role": "Record Qualifier"}, {"ItemOID": "IT.SR.SREVAL", "OrderNumber": 27, "Mandatory": "No", "Role": "Record Qualifier"}, {"ItemOID": "IT.SR.VISITNUM", "OrderNumber": 28, "Mandatory": "No", "Role": "Timing"}, {"ItemOID": "IT.SR.VISIT", "OrderNumber": 29, "Mandatory": "No", "Role": "Timing"}, {"ItemOID": "IT.SR.VISITDY", "OrderNumber": 30, "Mandatory": "No", "Role": "Timing"}, {"ItemOID": "IT.SR.TAETORD", "OrderNumber": 31, "Mandatory": "No", "Role": "Timing"}, {"ItemOID": "IT.SR.EPOCH", "OrderNumber": 32, "Mandatory": "No", "Role": "Timing"}, {"ItemOID": "IT.SR.SRDTC", "OrderNumber": 33, "Mandatory": "No", "Role": "Timing"}, {"ItemOID": "IT.SR.SRDY", "OrderNumber": 34, "Mandatory": "No", "Role": "Timing"}, {"ItemOID": "IT.SR.SRTPT", "OrderNumber": 35, "Mandatory": "No", "Role": "Timing"}, {"ItemOID": "IT.SR.SRTPTNUM", "OrderNumber": 36, "Mandatory": "No", "Role": "Timing"}, {"ItemOID": "IT.SR.SRELTM", "OrderNumber": 37, "Mandatory": "No", "Role": "Timing"}, {"ItemOID": "IT.SR.SRTPTREF", "OrderNumber": 38, "Mandatory": "No", "Role": "Timing"}, {"ItemOID": "IT.SR.SRRFTDTC", "OrderNumber": 39, "Mandatory": "No", "Role": "Timing"}], "Class": {"Name": "FINDINGS ABOUT"}}, {"OID": "IGD.CO", "Name": "CO", "Domain": "CO", "Repeating": "No", "Purpose": "Tabulation", "Structure": "One record per comment per subject", "Description": {"TranslatedText": [{"lang": "en", "_content": "Comments"}]}, "ItemRef": [{"ItemOID": "IT.CO.STUDYID", "OrderNumber": 1, "Mandatory": "No", "Role": "Identifier"}, {"ItemOID": "IT.CO.DOMAIN", "OrderNumber": 2, "Mandatory": "No", "Role": "Identifier"}, {"ItemOID": "IT.CO.RDOMAIN", "OrderNumber": 3, "Mandatory": "No", "Role": "Record Qualifier"}, {"ItemOID": "IT.CO.USUBJID", "OrderNumber": 4, "Mandatory": "No", "Role": "Identifier"}, {"ItemOID": "IT.CO.COSEQ", "OrderNumber": 5, "Mandatory": "No", "Role": "Identifier"}, {"ItemOID": "IT.CO.IDVAR", "OrderNumber": 6, "Mandatory": "No", "Role": "Record Qualifier"}, {"ItemOID": "IT.CO.IDVARVAL", "OrderNumber": 7, "Mandatory": "No", "Role": "Record Qualifier"}, {"ItemOID": "IT.CO.COREF", "OrderNumber": 8, "Mandatory": "No", "Role": "Record Qualifier"}, {"ItemOID": "IT.CO.COVAL", "OrderNumber": 9, "Mandatory": "No", "Role": "Topic"}, {"ItemOID": "IT.CO.COEVAL", "OrderNumber": 10, "Mandatory": "No", "Role": "Record Qualifier"}, {"ItemOID": "IT.CO.COEVALID", "OrderNumber": 11, "Mandatory": "No", "Role": "Record Qualifier"}, {"ItemOID": "IT.CO.CODTC", "OrderNumber": 12, "Mandatory": "No", "Role": "Timing"}, {"ItemOID": "IT.CO.CODY", "OrderNumber": 13, "Mandatory": "No", "Role": "Timing"}], "Class": {"Name": "SPECIAL PURPOSE"}}, {"OID": "IGD.DM", "Name": "DM", "Domain": "DM", "Repeating": "No", "Purpose": "Tabulation", "Structure": "One record per subject", "Description": {"TranslatedText": [{"lang": "en", "_content": "Demographics"}]}, "ItemRef": [{"ItemOID": "IT.DM.STUDYID", "OrderNumber": 1, "Mandatory": "No", "Role": "Identifier"}, {"ItemOID": "IT.DM.DOMAIN", "OrderNumber": 2, "Mandatory": "No", "Role": "Identifier"}, {"ItemOID": "IT.DM.USUBJID", "OrderNumber": 3, "Mandatory": "No", "Role": "Identifier"}, {"ItemOID": "IT.DM.SUBJID", "OrderNumber": 4, "Mandatory": "No", "Role": "Topic"}, {"ItemOID": "IT.DM.RFSTDTC", "OrderNumber": 5, "Mandatory": "No", "Role": "Record Qualifier"}, {"ItemOID": "IT.DM.RFENDTC", "OrderNumber": 6, "Mandatory": "No", "Role": "Record Qualifier"}, {"ItemOID": "IT.DM.RFXSTDTC", "OrderNumber": 7, "Mandatory": "No", "Role": "Record Qualifier"}, {"ItemOID": "IT.DM.RFXENDTC", "OrderNumber": 8, "Mandatory": "No", "Role": "Record Qualifier"}, {"ItemOID": "IT.DM.RFCSTDTC", "OrderNumber": 9, "Mandatory": "No", "Role": "Record Qualifier"}, {"ItemOID": "IT.DM.RFCENDTC", "OrderNumber": 10, "Mandatory": "No", "Role": "Record Qualifier"}, {"ItemOID": "IT.DM.RFICDTC", "OrderNumber": 11, "Mandatory": "No", "Role": "Record Qualifier"}, {"ItemOID": "IT.DM.RFPENDTC", "OrderNumber": 12, "Mandatory": "No", "Role": "Record Qualifier"}, {"ItemOID": "IT.DM.DTHDTC", "OrderNumber": 13, "Mandatory": "No", "Role": "Record Qualifier"}, {"ItemOID": "IT.DM.DTHFL", "OrderNumber": 14, "Mandatory": "No", "Role": "Record Qualifier"}, {"ItemOID": "IT.DM.SITEID", "OrderNumber": 15, "Mandatory": "No", "Role": "Record Qualifier"}, {"ItemOID": "IT.DM.INVID", "OrderNumber": 16, "Mandatory": "No", "Role": "Record Qualifier"}, {"ItemOID": "IT.DM.INVNAM", "OrderNumber": 17, "Mandatory": "No", "Role": "Synonym Qualifier"}, {"ItemOID": "IT.DM.BRTHDTC", "OrderNumber": 18, "Mandatory": "No", "Role": "Record Qualifier"}, {"ItemOID": "IT.DM.AGE", "OrderNumber": 19, "Mandatory": "No", "Role": "Record Qualifier"}, {"ItemOID": "IT.DM.AGEU", "OrderNumber": 20, "Mandatory": "No", "Role": "Variable Qualifier"}, {"ItemOID": "IT.DM.SEX", "OrderNumber": 21, "Mandatory": "No", "Role": "Record Qualifier"}, {"ItemOID": "IT.DM.RACE", "OrderNumber": 22, "Mandatory": "No", "Role": "Record Qualifier"}, {"ItemOID": "IT.DM.ETHNIC", "OrderNumber": 23, "Mandatory": "No", "Role": "Record Qualifier"}, {"ItemOID": "IT.DM.ARMCD", "OrderNumber": 24, "Mandatory": "No", "Role": "Record Qualifier"}, {"ItemOID": "IT.DM.ARM", "OrderNumber": 25, "Mandatory": "No", "Role": "Synonym Qualifier"}, {"ItemOID": "IT.DM.ACTARMCD", "OrderNumber": 26, "Mandatory": "No", "Role": "Record Qualifier"}, {"ItemOID": "IT.DM.ACTARM", "OrderNumber": 27, "Mandatory": "No", "Role": "Synonym Qualifier"}, {"ItemOID": "IT.DM.ARMNRS", "OrderNumber": 28, "Mandatory": "No", "Role": "Record Qualifier"}, {"ItemOID": "IT.DM.ACTARMUD", "OrderNumber": 29, "Mandatory": "No", "Role": "Record Qualifier"}, {"ItemOID": "IT.DM.COUNTRY", "OrderNumber": 30, "Mandatory": "No", "Role": "Record Qualifier"}, {"ItemOID": "IT.DM.DMDTC", "OrderNumber": 31, "Mandatory": "No", "Role": "Timing"}, {"ItemOID": "IT.DM.DMDY", "OrderNumber": 32, "Mandatory": "No", "Role": "Timing"}], "Class": {"Name": "SPECIAL PURPOSE"}}, {"OID": "IGD.SE", "Name": "SE", "Domain": "SE", "Repeating": "No", "Purpose": "Tabulation", "Structure": "One record per actual Element per subject", "Description": {"TranslatedText": [{"lang": "en", "_content": "Subject Elements"}]}, "ItemRef": [{"ItemOID": "IT.SE.STUDYID", "OrderNumber": 1, "Mandatory": "No", "Role": "Identifier"}, {"ItemOID": "IT.SE.DOMAIN", "OrderNumber": 2, "Mandatory": "No", "Role": "Identifier"}, {"ItemOID": "IT.SE.USUBJID", "OrderNumber": 3, "Mandatory": "No", "Role": "Identifier"}, {"ItemOID": "IT.SE.SESEQ", "OrderNumber": 4, "Mandatory": "No", "Role": "Identifier"}, {"ItemOID": "IT.SE.ETCD", "OrderNumber": 5, "Mandatory": "No", "Role": "Topic"}, {"ItemOID": "IT.SE.ELEMENT", "OrderNumber": 6, "Mandatory": "No", "Role": "Synonym Qualifier"}, {"ItemOID": "IT.SE.TAETORD", "OrderNumber": 7, "Mandatory": "No", "Role": "Timing"}, {"ItemOID": "IT.SE.EPOCH", "OrderNumber": 8, "Mandatory": "No", "Role": "Timing"}, {"ItemOID": "IT.SE.SESTDTC", "OrderNumber": 9, "Mandatory": "No", "Role": "Timing"}, {"ItemOID": "IT.SE.SEENDTC", "OrderNumber": 10, "Mandatory": "No", "Role": "Timing"}, {"ItemOID": "IT.SE.SESTDY", "OrderNumber": 11, "Mandatory": "No", "Role": "Timing"}, {"ItemOID": "IT.SE.SEENDY", "OrderNumber": 12, "Mandatory": "No", "Role": "Timing"}, {"ItemOID": "IT.SE.SEUPDES", "OrderNumber": 13, "Mandatory": "No", "Role": "Synonym Qualifier"}], "Class": {"Name": "SPECIAL PURPOSE"}}, {"OID": "IGD.SM", "Name": "SM", "Domain": "SM", "Repeating": "No", "Purpose": "Tabulation", "Structure": "One record per Disease Milestone per subject", "Description": {"TranslatedText": [{"lang": "en", "_content": "Subject Disease Milestones"}]}, "ItemRef": [{"ItemOID": "IT.SM.STUDYID", "OrderNumber": 1, "Mandatory": "No", "Role": "Identifier"}, {"ItemOID": "IT.SM.DOMAIN", "OrderNumber": 2, "Mandatory": "No", "Role": "Identifier"}, {"ItemOID": "IT.SM.USUBJID", "OrderNumber": 3, "Mandatory": "No", "Role": "Identifier"}, {"ItemOID": "IT.SM.SMSEQ", "OrderNumber": 4, "Mandatory": "No", "Role": "Identifier"}, {"ItemOID": "IT.SM.MIDS", "OrderNumber": 5, "Mandatory": "No", "Role": "Topic"}, {"ItemOID": "IT.SM.MIDSTYPE", "OrderNumber": 6, "Mandatory": "No", "Role": "Record Qualifier"}, {"ItemOID": "IT.SM.SMSTDTC", "OrderNumber": 7, "Mandatory": "No", "Role": "Timing"}, {"ItemOID": "IT.SM.SMENDTC", "OrderNumber": 8, "Mandatory": "No", "Role": "Timing"}, {"ItemOID": "IT.SM.SMSTDY", "OrderNumber": 9, "Mandatory": "No", "Role": "Timing"}, {"ItemOID": "IT.SM.SMENDY", "OrderNumber": 10, "Mandatory": "No", "Role": "Timing"}], "Class": {"Name": "SPECIAL PURPOSE"}}, {"OID": "IGD.SV", "Name": "SV", "Domain": "SV", "Repeating": "No", "Purpose": "Tabulation", "Structure": "One record per actual or planned visit per subject", "Description": {"TranslatedText": [{"lang": "en", "_content": "Subject Visits"}]}, "ItemRef": [{"ItemOID": "IT.SV.STUDYID", "OrderNumber": 1, "Mandatory": "No", "Role": "Identifier"}, {"ItemOID": "IT.SV.DOMAIN", "OrderNumber": 2, "Mandatory": "No", "Role": "Identifier"}, {"ItemOID": "IT.SV.USUBJID", "OrderNumber": 3, "Mandatory": "No", "Role": "Identifier"}, {"ItemOID": "IT.SV.VISITNUM", "OrderNumber": 4, "Mandatory": "No", "Role": "Topic"}, {"ItemOID": "IT.SV.VISIT", "OrderNumber": 5, "Mandatory": "No", "Role": "Synonym Qualifier"}, {"ItemOID": "IT.SV.SVPRESP", "OrderNumber": 6, "Mandatory": "No", "Role": "Variable Qualifier"}, {"ItemOID": "IT.SV.SVOCCUR", "OrderNumber": 7, "Mandatory": "No", "Role": "Record Qualifier"}, {"ItemOID": "IT.SV.SVREASOC", "OrderNumber": 8, "Mandatory": "No", "Role": "Record Qualifier"}, {"ItemOID": "IT.SV.SVCNTMOD", "OrderNumber": 9, "Mandatory": "No", "Role": "Record Qualifier"}, {"ItemOID": "IT.SV.SVEPCHGI", "OrderNumber": 10, "Mandatory": "No", "Role": "Record Qualifier"}, {"ItemOID": "IT.SV.VISITDY", "OrderNumber": 11, "Mandatory": "No", "Role": "Timing"}, {"ItemOID": "IT.SV.SVSTDTC", "OrderNumber": 12, "Mandatory": "No", "Role": "Timing"}, {"ItemOID": "IT.SV.SVENDTC", "OrderNumber": 13, "Mandatory": "No", "Role": "Timing"}, {"ItemOID": "IT.SV.SVSTDY", "OrderNumber": 14, "Mandatory": "No", "Role": "Timing"}, {"ItemOID": "IT.SV.SVENDY", "OrderNumber": 15, "Mandatory": "No", "Role": "Timing"}, {"ItemOID": "IT.SV.SVUPDES", "OrderNumber": 16, "Mandatory": "No", "Role": "Record Qualifier"}], "Class": {"Name": "SPECIAL PURPOSE"}}, {"OID": "IGD.TA", "Name": "TA", "Domain": "TA", "Repeating": "No", "Purpose": "Tabulation", "Structure": "One record per planned Element per Arm", "Description": {"TranslatedText": [{"lang": "en", "_content": "Trial Arms"}]}, "ItemRef": [{"ItemOID": "IT.TA.STUDYID", "OrderNumber": 1, "Mandatory": "No", "Role": "Identifier"}, {"ItemOID": "IT.TA.DOMAIN", "OrderNumber": 2, "Mandatory": "No", "Role": "Identifier"}, {"ItemOID": "IT.TA.ARMCD", "OrderNumber": 3, "Mandatory": "No", "Role": "Topic"}, {"ItemOID": "IT.TA.ARM", "OrderNumber": 4, "Mandatory": "No", "Role": "Synonym Qualifier"}, {"ItemOID": "IT.TA.TAETORD", "OrderNumber": 5, "Mandatory": "No", "Role": "Timing"}, {"ItemOID": "IT.TA.ETCD", "OrderNumber": 6, "Mandatory": "No", "Role": "Record Qualifier"}, {"ItemOID": "IT.TA.ELEMENT", "OrderNumber": 7, "Mandatory": "No", "Role": "Synonym Qualifier"}, {"ItemOID": "IT.TA.TABRANCH", "OrderNumber": 8, "Mandatory": "No", "Role": "Rule"}, {"ItemOID": "IT.TA.TATRANS", "OrderNumber": 9, "Mandatory": "No", "Role": "Rule"}, {"ItemOID": "IT.TA.EPOCH", "OrderNumber": 10, "Mandatory": "No", "Role": "Timing"}], "Class": {"Name": "TRIAL DESIGN"}}, {"OID": "IGD.TD", "Name": "TD", "Domain": "TD", "Repeating": "No", "Purpose": "Tabulation", "Structure": "One record per planned constant assessment period", "Description": {"TranslatedText": [{"lang": "en", "_content": "Trial Disease Assessments"}]}, "ItemRef": [{"ItemOID": "IT.TD.STUDYID", "OrderNumber": 1, "Mandatory": "No", "Role": "Identifier"}, {"ItemOID": "IT.TD.DOMAIN", "OrderNumber": 2, "Mandatory": "No", "Role": "Identifier"}, {"ItemOID": "IT.TD.TDORDER", "OrderNumber": 3, "Mandatory": "No", "Role": "Timing"}, {"ItemOID": "IT.TD.TDANCVAR", "OrderNumber": 4, "Mandatory": "No", "Role": "Timing"}, {"ItemOID": "IT.TD.TDSTOFF", "OrderNumber": 5, "Mandatory": "No", "Role": "Timing"}, {"ItemOID": "IT.TD.TDTGTPAI", "OrderNumber": 6, "Mandatory": "No", "Role": "Timing"}, {"ItemOID": "IT.TD.TDMINPAI", "OrderNumber": 7, "Mandatory": "No", "Role": "Timing"}, {"ItemOID": "IT.TD.TDMAXPAI", "OrderNumber": 8, "Mandatory": "No", "Role": "Timing"}, {"ItemOID": "IT.TD.TDNUMRPT", "OrderNumber": 9, "Mandatory": "No", "Role": "Record Qualifier"}], "Class": {"Name": "TRIAL DESIGN"}}, {"OID": "IGD.TE", "Name": "TE", "Domain": "TE", "Repeating": "No", "Purpose": "Tabulation", "Structure": "One record per planned Element", "Description": {"TranslatedText": [{"lang": "en", "_content": "Trial Elements"}]}, "ItemRef": [{"ItemOID": "IT.TE.STUDYID", "OrderNumber": 1, "Mandatory": "No", "Role": "Identifier"}, {"ItemOID": "IT.TE.DOMAIN", "OrderNumber": 2, "Mandatory": "No", "Role": "Identifier"}, {"ItemOID": "IT.TE.ETCD", "OrderNumber": 3, "Mandatory": "No", "Role": "Topic"}, {"ItemOID": "IT.TE.ELEMENT", "OrderNumber": 4, "Mandatory": "No", "Role": "Synonym Qualifier"}, {"ItemOID": "IT.TE.TESTRL", "OrderNumber": 5, "Mandatory": "No", "Role": "Rule"}, {"ItemOID": "IT.TE.TEENRL", "OrderNumber": 6, "Mandatory": "No", "Role": "Rule"}, {"ItemOID": "IT.TE.TEDUR", "OrderNumber": 7, "Mandatory": "No", "Role": "Timing"}], "Class": {"Name": "TRIAL DESIGN"}}, {"OID": "IGD.TI", "Name": "TI", "Domain": "TI", "Repeating": "No", "Purpose": "Tabulation", "Structure": "One record per I/E criterion", "Description": {"TranslatedText": [{"lang": "en", "_content": "Trial Inclusion/Exclusion Criteria"}]}, "ItemRef": [{"ItemOID": "IT.TI.STUDYID", "OrderNumber": 1, "Mandatory": "No", "Role": "Identifier"}, {"ItemOID": "IT.TI.DOMAIN", "OrderNumber": 2, "Mandatory": "No", "Role": "Identifier"}, {"ItemOID": "IT.TI.IETESTCD", "OrderNumber": 3, "Mandatory": "No", "Role": "Topic"}, {"ItemOID": "IT.TI.IETEST", "OrderNumber": 4, "Mandatory": "No", "Role": "Synonym Qualifier"}, {"ItemOID": "IT.TI.IECAT", "OrderNumber": 5, "Mandatory": "No", "Role": "Grouping Qualifier"}, {"ItemOID": "IT.TI.IESCAT", "OrderNumber": 6, "Mandatory": "No", "Role": "Grouping Qualifier"}, {"ItemOID": "IT.TI.TIRL", "OrderNumber": 7, "Mandatory": "No", "Role": "Rule"}, {"ItemOID": "IT.TI.TIVERS", "OrderNumber": 8, "Mandatory": "No", "Role": "Record Qualifier"}], "Class": {"Name": "TRIAL DESIGN"}}, {"OID": "IGD.TM", "Name": "TM", "Domain": "TM", "Repeating": "No", "Purpose": "Tabulation", "Structure": "One record per Disease Milestone type", "Description": {"TranslatedText": [{"lang": "en", "_content": "Trial Disease Milestones"}]}, "ItemRef": [{"ItemOID": "IT.TM.STUDYID", "OrderNumber": 1, "Mandatory": "No", "Role": "Identifier"}, {"ItemOID": "IT.TM.DOMAIN", "OrderNumber": 2, "Mandatory": "No", "Role": "Identifier"}, {"ItemOID": "IT.TM.MIDSTYPE", "OrderNumber": 3, "Mandatory": "No", "Role": "Topic"}, {"ItemOID": "IT.TM.TMDEF", "OrderNumber": 4, "Mandatory": "No", "Role": "Variable Qualifier"}, {"ItemOID": "IT.TM.TMRPT", "OrderNumber": 5, "Mandatory": "No", "Role": "Record Qualifier"}], "Class": {"Name": "TRIAL DESIGN"}}, {"OID": "IGD.TS", "Name": "TS", "Domain": "TS", "Repeating": "No", "Purpose": "Tabulation", "Structure": "One record per trial summary parameter value", "Description": {"TranslatedText": [{"lang": "en", "_content": "Trial Summary"}]}, "ItemRef": [{"ItemOID": "IT.TS.STUDYID", "OrderNumber": 1, "Mandatory": "No", "Role": "Identifier"}, {"ItemOID": "IT.TS.DOMAIN", "OrderNumber": 2, "Mandatory": "No", "Role": "Identifier"}, {"ItemOID": "IT.TS.TSSEQ", "OrderNumber": 3, "Mandatory": "No", "Role": "Identifier"}, {"ItemOID": "IT.TS.TSGRPID", "OrderNumber": 4, "Mandatory": "No", "Role": "Identifier"}, {"ItemOID": "IT.TS.TSPARMCD", "OrderNumber": 5, "Mandatory": "No", "Role": "Topic"}, {"ItemOID": "IT.TS.TSPARM", "OrderNumber": 6, "Mandatory": "No", "Role": "Synonym Qualifier"}, {"ItemOID": "IT.TS.TSVAL", "OrderNumber": 7, "Mandatory": "No", "Role": "Result Qualifier"}, {"ItemOID": "IT.TS.TSVALNF", "OrderNumber": 8, "Mandatory": "No", "Role": "Result Qualifier"}, {"ItemOID": "IT.TS.TSVALCD", "OrderNumber": 9, "Mandatory": "No", "Role": "Result Qualifier"}, {"ItemOID": "IT.TS.TSVCDREF", "OrderNumber": 10, "Mandatory": "No", "Role": "Result Qualifier"}, {"ItemOID": "IT.TS.TSVCDVER", "OrderNumber": 11, "Mandatory": "No", "Role": "Result Qualifier"}], "Class": {"Name": "TRIAL DESIGN"}}, {"OID": "IGD.TV", "Name": "TV", "Domain": "TV", "Repeating": "No", "Purpose": "Tabulation", "Structure": "One record per planned Visit per Arm", "Description": {"TranslatedText": [{"lang": "en", "_content": "Trial Visits"}]}, "ItemRef": [{"ItemOID": "IT.TV.STUDYID", "OrderNumber": 1, "Mandatory": "No", "Role": "Identifier"}, {"ItemOID": "IT.TV.DOMAIN", "OrderNumber": 2, "Mandatory": "No", "Role": "Identifier"}, {"ItemOID": "IT.TV.VISITNUM", "OrderNumber": 3, "Mandatory": "No", "Role": "Topic"}, {"ItemOID": "IT.TV.VISIT", "OrderNumber": 4, "Mandatory": "No", "Role": "Synonym Qualifier"}, {"ItemOID": "IT.TV.VISITDY", "OrderNumber": 5, "Mandatory": "No", "Role": "Timing"}, {"ItemOID": "IT.TV.ARMCD", "OrderNumber": 6, "Mandatory": "No", "Role": "Record Qualifier"}, {"ItemOID": "IT.TV.ARM", "OrderNumber": 7, "Mandatory": "No", "Role": "Synonym Qualifier"}, {"ItemOID": "IT.TV.TVSTRL", "OrderNumber": 8, "Mandatory": "No", "Role": "Rule"}, {"ItemOID": "IT.TV.TVENRL", "OrderNumber": 9, "Mandatory": "No", "Role": "Rule"}], "Class": {"Name": "TRIAL DESIGN"}}, {"OID": "IGD.OI", "Name": "OI", "Domain": "OI", "Repeating": "No", "Purpose": "Tabulation", "Structure": "One record per taxon per non-host organism", "Description": {"TranslatedText": [{"lang": "en", "_content": "Non-host Organism Identifiers"}]}, "ItemRef": [{"ItemOID": "IT.OI.STUDYID", "OrderNumber": 1, "Mandatory": "No", "Role": "Identifier"}, {"ItemOID": "IT.OI.DOMAIN", "OrderNumber": 2, "Mandatory": "No", "Role": "Identifier"}, {"ItemOID": "IT.OI.NHOID", "OrderNumber": 3, "Mandatory": "No", "Role": "Identifier"}, {"ItemOID": "IT.OI.OISEQ", "OrderNumber": 4, "Mandatory": "No", "Role": "Identifier"}, {"ItemOID": "IT.OI.OIPARMCD", "OrderNumber": 5, "Mandatory": "No", "Role": "Topic"}, {"ItemOID": "IT.OI.OIPARM", "OrderNumber": 6, "Mandatory": "No", "Role": "Synonym Qualifier"}, {"ItemOID": "IT.OI.OIVAL", "OrderNumber": 7, "Mandatory": "No", "Role": "Result Qualifier"}], "Class": {"Name": "STUDY REFERENCE"}}, {"OID": "IGD.RELREC", "Name": "RELREC", "Domain": "RELREC", "Repeating": "No", "Purpose": "Tabulation", "Structure": "One record per related record, group of records or dataset", "Description": {"TranslatedText": [{"lang": "en", "_content": "Related Records"}]}, "ItemRef": [{"ItemOID": "IT.RELREC.STUDYID", "OrderNumber": 1, "Mandatory": "No", "Role": "Identifier"}, {"ItemOID": "IT.RELREC.RDOMAIN", "OrderNumber": 2, "Mandatory": "No", "Role": "Identifier"}, {"ItemOID": "IT.RELREC.USUBJID", "OrderNumber": 3, "Mandatory": "No", "Role": "Identifier"}, {"ItemOID": "IT.RELREC.IDVAR", "OrderNumber": 4, "Mandatory": "No", "Role": "Identifier"}, {"ItemOID": "IT.RELREC.IDVARVAL", "OrderNumber": 5, "Mandatory": "No", "Role": "Identifier"}, {"ItemOID": "IT.RELREC.RELTYPE", "OrderNumber": 6, "Mandatory": "No", "Role": "Record Qualifier"}, {"ItemOID": "IT.RELREC.RELID", "OrderNumber": 7, "Mandatory": "No", "Role": "Record Qualifier"}], "Class": {"Name": "RELATIONSHIP"}}, {"OID": "IGD.RELSPEC", "Name": "RELSPEC", "Domain": "RELSPEC", "Repeating": "No", "Purpose": "Tabulation", "Structure": "One record per specimen identifier per subject", "Description": {"TranslatedText": [{"lang": "en", "_content": "Related Specimens"}]}, "ItemRef": [{"ItemOID": "IT.RELSPEC.STUDYID", "OrderNumber": 1, "Mandatory": "No", "Role": "Identifier"}, {"ItemOID": "IT.RELSPEC.USUBJID", "OrderNumber": 2, "Mandatory": "No", "Role": "Identifier"}, {"ItemOID": "IT.RELSPEC.REFID", "OrderNumber": 3, "Mandatory": "No", "Role": "Identifier"}, {"ItemOID": "IT.RELSPEC.SPEC", "OrderNumber": 4, "Mandatory": "No", "Role": "Variable Qualifier"}, {"ItemOID": "IT.RELSPEC.PARENT", "OrderNumber": 5, "Mandatory": "No", "Role": "Identifier"}, {"ItemOID": "IT.RELSPEC.LEVEL", "OrderNumber": 6, "Mandatory": "No", "Role": "Variable Qualifier"}], "Class": {"Name": "RELATIONSHIP"}}, {"OID": "IGD.RELSUB", "Name": "RELSUB", "Domain": "RELSUB", "Repeating": "No", "Purpose": "Tabulation", "Structure": "One record per relationship per related subject per subject", "Description": {"TranslatedText": [{"lang": "en", "_content": "Related Subjects"}]}, "ItemRef": [{"ItemOID": "IT.RELSUB.STUDYID", "OrderNumber": 1, "Mandatory": "No", "Role": "Identifier"}, {"ItemOID": "IT.RELSUB.USUBJID", "OrderNumber": 2, "Mandatory": "No", "Role": "Identifier"}, {"ItemOID": "IT.RELSUB.POOLID", "OrderNumber": 3, "Mandatory": "No", "Role": "Identifier"}, {"ItemOID": "IT.RELSUB.RSUBJID", "OrderNumber": 4, "Mandatory": "No", "Role": "Identifier"}, {"ItemOID": "IT.RELSUB.SREL", "OrderNumber": 5, "Mandatory": "No", "Role": "Record Qualifier"}], "Class": {"Name": "RELATIONSHIP"}}, {"OID": "IGD.SUPPQUAL", "Name": "SUPPQUAL", "Domain": "SUPPQUAL", "Repeating": "No", "Purpose": "Tabulation", "Structure": "One record per supplemental qualifier per related parent domain record(s)", "Description": {"TranslatedText": [{"lang": "en", "_content": "Supplemental Qualifiers for [domain name]"}]}, "ItemRef": [{"ItemOID": "IT.SUPPQUAL.STUDYID", "OrderNumber": 1, "Mandatory": "No", "Role": "Identifier"}, {"ItemOID": "IT.SUPPQUAL.RDOMAIN", "OrderNumber": 2, "Mandatory": "No", "Role": "Identifier"}, {"ItemOID": "IT.SUPPQUAL.USUBJID", "OrderNumber": 3, "Mandatory": "No", "Role": "Identifier"}, {"ItemOID": "IT.SUPPQUAL.IDVAR", "OrderNumber": 4, "Mandatory": "No", "Role": "Identifier"}, {"ItemOID": "IT.SUPPQUAL.IDVARVAL", "OrderNumber": 5, "Mandatory": "No", "Role": "Identifier"}, {"ItemOID": "IT.SUPPQUAL.QNAM", "OrderNumber": 6, "Mandatory": "No", "Role": "Topic"}, {"ItemOID": "IT.SUPPQUAL.QLABEL", "OrderNumber": 7, "Mandatory": "No", "Role": "Synonym Qualifier"}, {"ItemOID": "IT.SUPPQUAL.QVAL", "OrderNumber": 8, "Mandatory": "No", "Role": "Result Qualifier"}, {"ItemOID": "IT.SUPPQUAL.QORIG", "OrderNumber": 9, "Mandatory": "No", "Role": "Record Qualifier"}, {"ItemOID": "IT.SUPPQUAL.QEVAL", "OrderNumber": 10, "Mandatory": "No", "Role": "Record Qualifier"}], "Class": {"Name": "RELATIONSHIP"}}], "ItemDef": [{"OID": "IT.AG.STUDYID", "Name": "STUDYID", "Core": "Req", "DataType": "text", "SubmissionDataType": "Char", "Description": {"TranslatedText": [{"lang": "en", "_content": "Study Identifier"}]}, "CDISCNotes": {"TranslatedText": [{"lang": "en", "_content": "Unique identifier for a study."}]}}, {"OID": "IT.AG.DOMAIN", "Name": "DOMAIN", "Core": "Req", "DataType": "text", "SubmissionDataType": "Char", "Description": {"TranslatedText": [{"lang": "en", "_content": "Domain Abbreviation"}]}, "CodeListRef": {"CodeListOID": "CL.C66734.AG"}, "CDISCNotes": {"TranslatedText": [{"lang": "en", "_content": "Two-character abbreviation for the domain."}]}}, {"OID": "IT.AG.USUBJID", "Name": "USUBJID", "Core": "Req", "DataType": "text", "SubmissionDataType": "Char", "Description": {"TranslatedText": [{"lang": "en", "_content": "Unique Subject Identifier"}]}, "CDISCNotes": {"TranslatedText": [{"lang": "en", "_content": "Identifier used to uniquely identify a subject across all studies for all applications or submissions involving the product."}]}}, {"OID": "IT.AG.AGSEQ", "Name": "AGSEQ", "Core": "Req", "DataType": "double", "SubmissionDataType": "Num", "Description": {"TranslatedText": [{"lang": "en", "_content": "Sequence Number"}]}, "CDISCNotes": {"TranslatedText": [{"lang": "en", "_content": "Sequence number given to ensure uniqueness of subject records within a domain. May be any valid number."}]}}, {"OID": "IT.AG.AGGRPID", "Name": "AGGRPID", "Core": "Perm", "DataType": "text", "SubmissionDataType": "Char", "Description": {"TranslatedText": [{"lang": "en", "_content": "Group ID"}]}, "CDISCNotes": {"TranslatedText": [{"lang": "en", "_content": "Used to tie together a block of related records in a single domain for a subject."}]}}, {"OID": "IT.AG.AGSPID", "Name": "AGSPID", "Core": "Perm", "DataType": "text", "SubmissionDataType": "Char", "Description": {"TranslatedText": [{"lang": "en", "_content": "Sponsor-Defined Identifier"}]}, "CDISCNotes": {"TranslatedText": [{"lang": "en", "_content": "Sponsor-defined reference number. May be preprinted on the CRF as an explicit line identifier or defined in the sponsor's operational database. Example: Line number from the procedure or test page."}]}}, {"OID": "IT.AG.AGLNKID", "Name": "AGLNKID", "Core": "Perm", "DataType": "text", "SubmissionDataType": "Char", "Description": {"TranslatedText": [{"lang": "en", "_content": "Link ID"}]}, "CDISCNotes": {"TranslatedText": [{"lang": "en", "_content": "Identifier used to link related records across domains.This may be a one-to-one or a one-to-many relationship."}]}}, {"OID": "IT.AG.AGLNKGRP", "Name": "AGLNKGRP", "Core": "Perm", "DataType": "text", "SubmissionDataType": "Char", "Description": {"TranslatedText": [{"lang": "en", "_content": "Link Group ID"}]}, "CDISCNotes": {"TranslatedText": [{"lang": "en", "_content": "Identifier used to link related records across domains.This will usually be a many-to-one relationship."}]}}, {"OID": "IT.AG.AGTRT", "Name": "AGTRT", "Core": "Req", "DataType": "text", "SubmissionDataType": "Char", "Description": {"TranslatedText": [{"lang": "en", "_content": "Reported Agent Name"}]}, "CDISCNotes": {"TranslatedText": [{"lang": "en", "_content": "Verbatim medication name that is either preprinted or collected on a CRF."}]}}, {"OID": "IT.AG.AGMODIFY", "Name": "AGMODIFY", "Core": "Perm", "DataType": "text", "SubmissionDataType": "Char", "Description": {"TranslatedText": [{"lang": "en", "_content": "Modified Reported Name"}]}, "CDISCNotes": {"TranslatedText": [{"lang": "en", "_content": "If AGTRT is modified to facilitate coding, then AGMODIFY will contain the modified text."}]}}, {"OID": "IT.AG.AGDECOD", "Name": "AGDECOD", "Core": "Perm", "DataType": "text", "SubmissionDataType": "Char", "Description": {"TranslatedText": [{"lang": "en", "_content": "Standardized Agent Name"}]}, "CDISCNotes": {"TranslatedText": [{"lang": "en", "_content": "Standardized or dictionary-derived text description of AGTRT or AGMODIFY. Equivalent to the generic medication name in WHO Drug. The sponsor is expected to provide the dictionary name and version used to map the terms utilizing the external codelist element in the Define-XML document. If an intervention term does not have a decode value in the dictionary, then AGDECOD will be left blank."}]}}, {"OID": "IT.AG.AGCAT", "Name": "AGCAT", "Core": "Perm", "DataType": "text", "SubmissionDataType": "Char", "Description": {"TranslatedText": [{"lang": "en", "_content": "Category for Agent"}]}, "CDISCNotes": {"TranslatedText": [{"lang": "en", "_content": "Used to define a category of agent. Examples: \"CHALLENGE AGENT\", \"PET TRACER\"."}]}}, {"