<?xml version='1.0' encoding='utf-8'?>
<ODM AsOfDateTime="2021-01-06T01:35:07.395522+00:00" CreationDateTime="2021-01-06T01:35:07.395522+00:00" FileOID="ODM.DEFINE.TEST.001" FileType="Snapshot" ODMVersion="1.3.2" Originator="Sam Hume" SourceSystem="ODMLib" SourceSystemVersion="0.1" xmlns="http://www.cdisc.org/ns/odm/v1.3" xmlns:def="http://www.cdisc.org/ns/def/v2.0" xmlns:xlink="http://www.w3.org/1999/xlink" xmlns:xml="http://www.w3.org/XML/1998/namespace" xmlns:xs="http://www.w3.org/2001/XMLSchema-instance"><Study OID="ODM.CDISC01"><GlobalVariables><StudyName>CDISC01</StudyName><StudyDescription>CDISC Test Study</StudyDescription><ProtocolName>CDISC01</ProtocolName></GlobalVariables><MetaDataVersion Description="Data Definitions for CDISC01" Name="MDV CDISC01" OID="MDV.CDISC01" def:DefineVersion="2.0.0" def:StandardName="SDTM-IG" def:StandardVersion="3.1.2"><def:AnnotatedCRF><def:DocumentRef leafID="LF.blankcrf" /></def:AnnotatedCRF><def:SupplementalDoc><def:DocumentRef leafID="LF.ReviewersGuide" /><def:DocumentRef leafID="LF.ComplexAlgorithms" /></def:SupplementalDoc><def:ValueListDef OID="VL.DA.DAORRES"><ItemRef ItemOID="IT.DA.DATESTCD.DISPAMT" Mandatory="Yes" OrderNumber="1"><def:WhereClauseRef WhereClauseOID="WC.DA.DATESTCD.DISPAMT" /></ItemRef><ItemRef ItemOID="IT.DA.DATESTCD.RETAMT" Mandatory="No" OrderNumber="2"><def:WhereClauseRef WhereClauseOID="WC.DA.DATESTCD.RETAMT" /></ItemRef></def:ValueListDef><def:ValueListDef OID="VL.EG.EGORRES"><ItemRef ItemOID="IT.EG.EGTESTCD.INTP" Mandatory="No" OrderNumber="1"><def:WhereClauseRef WhereClauseOID="WC.EG.EGTESTCD.INTP" /></ItemRef><ItemRef ItemOID="IT.EG.EGTESTCD.PRMEAN" Mandatory="No" OrderNumber="2"><def:WhereClauseRef WhereClauseOID="WC.EG.EGTESTCD.PRMEAN" /></ItemRef><ItemRef ItemOID="IT.EG.EGTESTCD.QRSDUR" Mandatory="No" OrderNumber="3"><def:WhereClauseRef WhereClauseOID="WC.EG.EGTESTCD.QRSDUR" /></ItemRef><ItemRef ItemOID="IT.EG.EGTESTCD.QTMEAN" Mandatory="No" OrderNumber="4"><def:WhereClauseRef WhereClauseOID="WC.EG.EGTESTCD.QTMEAN" /></ItemRef><ItemRef ItemOID="IT.EG.EGTESTCD.VRMEAN" Mandatory="No" OrderNumber="5"><def:WhereClauseRef WhereClauseOID="WC.EG.EGTESTCD.VRMEAN" /></ItemRef></def:ValueListDef><def:ValueListDef OID="VL.EG.EGSTRESC"><ItemRef ItemOID="IT.EG.EGTESTCD.QTCB" Mandatory="Yes" MethodOID="MT.QTCB" OrderNumber="1"><def:WhereClauseRef WhereClauseOID="WC.EG.EGTESTCD.QTCB" /></ItemRef><ItemRef ItemOID="IT.EG.EGTESTCD.QTCF" Mandatory="Yes" MethodOID="MT.QTCF" OrderNumber="2"><def:WhereClauseRef WhereClauseOID="WC.EG.EGTESTCD.QTCF" /></ItemRef></def:ValueListDef><def:ValueListDef OID="VL.IE.IEORRES"><ItemRef ItemOID="IT.IE.IETESTCD.EXCL01" Mandatory="No" OrderNumber="1"><def:WhereClauseRef WhereClauseOID="WC.IE.IETESTCD.EXCL01" /></ItemRef><ItemRef ItemOID="IT.IE.IETESTCD.EXCL02" Mandatory="No" OrderNumber="2"><def:WhereClauseRef WhereClauseOID="WC.IE.IETESTCD.EXCL02" /></ItemRef><ItemRef ItemOID="IT.IE.IETESTCD.EXCL03" Mandatory="No" OrderNumber="3"><def:WhereClauseRef WhereClauseOID="WC.IE.IETESTCD.EXCL03" /></ItemRef><ItemRef ItemOID="IT.IE.IETESTCD.INCL01" Mandatory="No" OrderNumber="4"><def:WhereClauseRef WhereClauseOID="WC.IE.IETESTCD.INCL01" /></ItemRef><ItemRef ItemOID="IT.IE.IETESTCD.INCL02" Mandatory="No" OrderNumber="5"><def:WhereClauseRef WhereClauseOID="WC.IE.IETESTCD.INCL02" /></ItemRef><ItemRef ItemOID="IT.IE.IETESTCD.INCL03" Mandatory="No" OrderNumber="6"><def:WhereClauseRef WhereClauseOID="WC.IE.IETESTCD.INCL03" /></ItemRef></def:ValueListDef><def:ValueListDef OID="VL.LB.LBORRES"><ItemRef ItemOID="IT.LB.LBTESTCD.BILI.LBCAT.CHEMISTRY.LBSPEC.BLOOD" Mandatory="No" OrderNumber="1"><def:WhereClauseRef WhereClauseOID="WC.LB.LBTESTCD.BILI.LBCAT.CHEMISTRY.LBSPEC.BLOOD" /></ItemRef><ItemRef ItemOID="IT.LB.LBTESTCD.BUN.LBCAT.CHEMISTRY.LBSPEC.BLOOD" Mandatory="No" OrderNumber="2"><def:WhereClauseRef WhereClauseOID="WC.LB.LBTESTCD.BUN.LBCAT.CHEMISTRY.LBSPEC.BLOOD" /></ItemRef><ItemRef ItemOID="IT.LB.LBTESTCD.GLUC.LBCAT.CHEMISTRY.LBSPEC.BLOOD" Mandatory="No" OrderNumber="3"><def:WhereClauseRef WhereClauseOID="WC.LB.LBTESTCD.GLUC.LBCAT.CHEMISTRY.LBSPEC.BLOOD" /></ItemRef><ItemRef ItemOID="IT.LB.LBTESTCD.GLUC.LBCAT.URINALYSIS.LBSPEC.URINE.LBMETHOD.DIPSTICK" Mandatory="No" OrderNumber="4"><def:WhereClauseRef WhereClauseOID="WC.LB.LBTESTCD.GLUC.LBCAT.URINALYSIS.LBSPEC.URINE.LBMETHOD.DIPSTICK" /></ItemRef><ItemRef ItemOID="IT.LB.LBTESTCD.GLUC.LBCAT.URINALYSIS.LBSPEC.URINE.LBMETHOD.QUANT" Mandatory="No" OrderNumber="5"><def:WhereClauseRef WhereClauseOID="WC.LB.LBTESTCD.GLUC.LBCAT.URINALYSIS.LBSPEC.URINE.LBMETHOD.QUANT" /></ItemRef><ItemRef ItemOID="IT.LB.LBTESTCD.HCT.LBCAT.HEMATOLOGY.LBSPEC.BLOOD" Mandatory="No" OrderNumber="6"><def:WhereClauseRef WhereClauseOID="WC.LB.LBTESTCD.HCT.LBCAT.HEMATOLOGY.LBSPEC.BLOOD" /></ItemRef><ItemRef ItemOID="IT.LB.LBTESTCD.HGB.LBCAT.HEMATOLOGY.LBSPEC.BLOOD" Mandatory="No" OrderNumber="7"><def:WhereClauseRef WhereClauseOID="WC.LB.LBTESTCD.HGB.LBCAT.HEMATOLOGY.LBSPEC.BLOOD" /></ItemRef><ItemRef ItemOID="IT.LB.LBTESTCD.LYM.LBCAT.HEMATOLOGY.LBSPEC.BLOOD" Mandatory="No" OrderNumber="8"><def:WhereClauseRef WhereClauseOID="WC.LB.LBTESTCD.LYM.LBCAT.HEMATOLOGY.LBSPEC.BLOOD" /></ItemRef><ItemRef ItemOID="IT.LB.LBTESTCD.OCCBLD.LBCAT.URINALYSIS.LBSPEC.URINE" Mandatory="No" OrderNumber="9"><def:WhereClauseRef WhereClauseOID="WC.LB.LBTESTCD.OCCBLD.LBCAT.URINALYSIS.LBSPEC.URINE" /></ItemRef><ItemRef ItemOID="IT.LB.LBTESTCD.PH.LBCAT.URINALYSIS.LBSPEC.URINE" Mandatory="No" OrderNumber="10"><def:WhereClauseRef WhereClauseOID="WC.LB.LBTESTCD.PH.LBCAT.URINALYSIS.LBSPEC.URINE" /></ItemRef><ItemRef ItemOID="IT.LB.LBTESTCD.VITB12.LBCAT.CHEMISTRY.LBSPEC.SERUM" Mandatory="No" OrderNumber="11"><def:WhereClauseRef WhereClauseOID="WC.LB.LBTESTCD.VITB12.LBCAT.CHEMISTRY.LBSPEC.SERUM" /></ItemRef><ItemRef ItemOID="IT.LB.LBTESTCD.VITB9.LBCAT.CHEMISTRY.LBSPEC.BLOOD" Mandatory="No" OrderNumber="12"><def:WhereClauseRef WhereClauseOID="WC.LB.LBTESTCD.VITB9.LBCAT.CHEMISTRY.LBSPEC.BLOOD" /></ItemRef></def:ValueListDef><def:ValueListDef OID="VL.PE.PEORRES"><ItemRef ItemOID="IT.PE.PETESTCD.PE01" Mandatory="Yes" OrderNumber="1"><def:WhereClauseRef WhereClauseOID="WC.PE.PETESTCD.PE01" /></ItemRef><ItemRef ItemOID="IT.PE.PETESTCD.PE02" Mandatory="Yes" OrderNumber="2"><def:WhereClauseRef WhereClauseOID="WC.PE.PETESTCD.PE02" /></ItemRef><ItemRef ItemOID="IT.PE.PETESTCD.PE03" Mandatory="Yes" OrderNumber="3"><def:WhereClauseRef WhereClauseOID="WC.PE.PETESTCD.PE03" /></ItemRef><ItemRef ItemOID="IT.PE.PETESTCD.PE04" Mandatory="Yes" OrderNumber="4"><def:WhereClauseRef WhereClauseOID="WC.PE.PETESTCD.PE04" /></ItemRef><ItemRef ItemOID="IT.PE.PETESTCD.PE05" Mandatory="Yes" OrderNumber="5"><def:WhereClauseRef WhereClauseOID="WC.PE.PETESTCD.PE05" /></ItemRef><ItemRef ItemOID="IT.PE.PETESTCD.PE06" Mandatory="Yes" OrderNumber="6"><def:WhereClauseRef WhereClauseOID="WC.PE.PETESTCD.PE06" /></ItemRef><ItemRef ItemOID="IT.PE.PETESTCD.PE07" Mandatory="Yes" OrderNumber="7"><def:WhereClauseRef WhereClauseOID="WC.PE.PETESTCD.PE07" /></ItemRef><ItemRef ItemOID="IT.PE.PETESTCD.PE08" Mandatory="Yes" OrderNumber="8"><def:WhereClauseRef WhereClauseOID="WC.PE.PETESTCD.PE08" /></ItemRef><ItemRef ItemOID="IT.PE.PETESTCD.PE09" Mandatory="No" OrderNumber="9"><def:WhereClauseRef WhereClauseOID="WC.PE.PETESTCD.PE09" /></ItemRef></def:ValueListDef><def:ValueListDef OID="VL.SC.SCORRES"><ItemRef ItemOID="IT.SC.SCTESTCD.EDLEVEL" Mandatory="No" OrderNumber="1"><def:WhereClauseRef WhereClauseOID="WC.SC.SCTESTCD.EDLEVEL" /></ItemRef><ItemRef ItemOID="IT.SC.SCTESTCD.MARISTAT" Mandatory="No" OrderNumber="2"><def:WhereClauseRef WhereClauseOID="WC.SC.SCTESTCD.MARISTAT" /></ItemRef><ItemRef ItemOID="IT.SC.SCTESTCD.SUBJINIT" Mandatory="No" OrderNumber="3"><def:WhereClauseRef WhereClauseOID="WC.SC.SCTESTCD.SUBJINIT" /></ItemRef></def:ValueListDef><def:ValueListDef OID="VL.SUPPAE.QVAL"><ItemRef ItemOID="IT.SUPPAE.QNAM.AETRTEM" Mandatory="No" MethodOID="MT.AETRTEM" OrderNumber="1"><def:WhereClauseRef WhereClauseOID="WC.SUPPAE.QNAM.AETRTEM" /></ItemRef><ItemRef ItemOID="IT.SUPPAE.QNAM.HLGT" Mandatory="No" OrderNumber="2"><def:WhereClauseRef WhereClauseOID="WC.SUPPAE.QNAM.HLGT" /></ItemRef><ItemRef ItemOID="IT.SUPPAE.QNAM.HLT" Mandatory="No" OrderNumber="3"><def:WhereClauseRef WhereClauseOID="WC.SUPPAE.QNAM.HLT" /></ItemRef><ItemRef ItemOID="IT.SUPPAE.QNAM.LLT" Mandatory="No" OrderNumber="4"><def:WhereClauseRef WhereClauseOID="WC.SUPPAE.QNAM.LLT" /></ItemRef></def:ValueListDef><def:ValueListDef OID="VL.SUPPCM.QVAL"><ItemRef ItemOID="IT.SUPPCM.QNAM.ATC4CODE" Mandatory="No" OrderNumber="1"><def:WhereClauseRef WhereClauseOID="WC.SUPPCM.QNAM.ATC4CODE" /></ItemRef><ItemRef ItemOID="IT.SUPPCM.QNAM.ATC4TERM" Mandatory="No" OrderNumber="2"><def:WhereClauseRef WhereClauseOID="WC.SUPPCM.QNAM.ATC4TERM" /></ItemRef><ItemRef ItemOID="IT.SUPPCM.QNAM.CPREFCD" Mandatory="No" OrderNumber="3"><def:WhereClauseRef WhereClauseOID="WC.SUPPCM.QNAM.CPREFCD" /></ItemRef><ItemRef ItemOID="IT.SUPPCM.QNAM.PDDREAS" Mandatory="No" OrderNumber="4"><def:WhereClauseRef WhereClauseOID="WC.SUPPCM.QNAM.PDDREAS" /></ItemRef><ItemRef ItemOID="IT.SUPPCM.QNAM.PDRESP" Mandatory="No" OrderNumber="5"><def:WhereClauseRef WhereClauseOID="WC.SUPPCM.QNAM.PDRESP" /></ItemRef></def:ValueListDef><def:ValueListDef OID="VL.SUPPDM.QVAL"><ItemRef ItemOID="IT.SUPPDM.QNAM.RACE1" Mandatory="No" OrderNumber="1"><def:WhereClauseRef WhereClauseOID="WC.SUPPDM.QNAM.RACE1" /></ItemRef><ItemRef ItemOID="IT.SUPPDM.QNAM.RACE2" Mandatory="No" OrderNumber="2"><def:WhereClauseRef WhereClauseOID="WC.SUPPDM.QNAM.RACE2" /></ItemRef><ItemRef ItemOID="IT.SUPPDM.QNAM.RACE3" Mandatory="No" OrderNumber="3"><def:WhereClauseRef WhereClauseOID="WC.SUPPDM.QNAM.RACE3" /></ItemRef><ItemRef ItemOID="IT.SUPPDM.QNAM.RACEOTH" Mandatory="No" OrderNumber="4"><def:WhereClauseRef WhereClauseOID="WC.SUPPDM.QNAM.RACEOTH" /></ItemRef><ItemRef ItemOID="IT.SUPPDM.QNAM.RAND" Mandatory="No" OrderNumber="5"><def:WhereClauseRef WhereClauseOID="WC.SUPPDM.QNAM.RAND" /></ItemRef><ItemRef ItemOID="IT.SUPPDM.QNAM.RANDNO" Mandatory="No" OrderNumber="6"><def:WhereClauseRef WhereClauseOID="WC.SUPPDM.QNAM.RANDNO" /></ItemRef><ItemRef ItemOID="IT.SUPPDM.QNAM.SAFETY" Mandatory="No" MethodOID="MT.SAFETY" OrderNumber="7"><def:WhereClauseRef WhereClauseOID="WC.SUPPDM.QNAM.SAFETY" /></ItemRef></def:ValueListDef><def:ValueListDef OID="VL.SUPPEG.QVAL"><ItemRef ItemOID="IT.SUPPEG.QNAM.EGCLSIG" Mandatory="No" OrderNumber="1"><def:WhereClauseRef WhereClauseOID="WC.SUPPEG.QNAM.EGCLSIG" /></ItemRef></def:ValueListDef><def:ValueListDef OID="VL.SUPPEX.QVAL"><ItemRef ItemOID="IT.SUPPEX.QNAM.SMNO" Mandatory="No" OrderNumber="1"><def:WhereClauseRef WhereClauseOID="WC.SUPPEX.QNAM.SMNO" /></ItemRef></def:ValueListDef><def:ValueListDef OID="VL.SUPPLB.QVAL"><ItemRef ItemOID="IT.SUPPLB.QNAM.LBCLSIG" Mandatory="No" MethodOID="MT.CLSIG" OrderNumber="1"><def:WhereClauseRef WhereClauseOID="WC.SUPPLB.QNAM.LBCLSIG" /></ItemRef></def:ValueListDef><def:ValueListDef OID="VL.SUPPQSMM.QVAL"><ItemRef ItemOID="IT.SUPPQS.QNAM.RTRINIT" Mandatory="No" OrderNumber="1"><def:WhereClauseRef WhereClauseOID="WC.SUPPQS.QNAM.RTRINIT" /></ItemRef></def:ValueListDef><def:ValueListDef OID="VL.SUPPVS.QVAL"><ItemRef ItemOID="IT.SUPPVS.QNAM.VSCLSIG" Mandatory="No" MethodOID="MT.CLSIG" OrderNumber="1"><def:WhereClauseRef WhereClauseOID="WC.SUPPVS.QNAM.VSCLSIG" /></ItemRef></def:ValueListDef><def:ValueListDef OID="VL.TS.TSVAL"><ItemRef ItemOID="IT.TS.TSPARMCD.ADDON" Mandatory="No" OrderNumber="1"><def:WhereClauseRef WhereClauseOID="WC.TS.TSPARMCD.ADDON" /></ItemRef><ItemRef ItemOID="IT.TS.TSPARMCD.AGEMAX" Mandatory="No" OrderNumber="2"><def:WhereClauseRef WhereClauseOID="WC.TS.TSPARMCD.AGEMAX" /></ItemRef><ItemRef ItemOID="IT.TS.TSPARMCD.AGEMIN" Mandatory="No" OrderNumber="3"><def:WhereClauseRef WhereClauseOID="WC.TS.TSPARMCD.AGEMIN" /></ItemRef><ItemRef ItemOID="IT.TS.TSPARMCD.AGESPAN" Mandatory="No" OrderNumber="4"><def:WhereClauseRef WhereClauseOID="WC.TS.TSPARMCD.AGESPAN" /></ItemRef><ItemRef ItemOID="IT.TS.TSPARMCD.AGEU" Mandatory="No" OrderNumber="5"><def:WhereClauseRef WhereClauseOID="WC.TS.TSPARMCD.AGEU" /></ItemRef><ItemRef ItemOID="IT.TS.TSPARMCD.DOSE" Mandatory="No" OrderNumber="6"><def:WhereClauseRef WhereClauseOID="WC.TS.TSPARMCD.DOSE" /></ItemRef><ItemRef ItemOID="IT.TS.TSPARMCD.DOSFRQ" Mandatory="No" OrderNumber="7"><def:WhereClauseRef WhereClauseOID="WC.TS.TSPARMCD.DOSFRQ" /></ItemRef><ItemRef ItemOID="IT.TS.TSPARMCD.DOSU" Mandatory="No" OrderNumber="8"><def:WhereClauseRef WhereClauseOID="WC.TS.TSPARMCD.DOSU" /></ItemRef><ItemRef ItemOID="IT.TS.TSPARMCD.LENGTH" Mandatory="No" OrderNumber="9"><def:WhereClauseRef WhereClauseOID="WC.TS.TSPARMCD.LENGTH" /></ItemRef><ItemRef ItemOID="IT.TS.TSPARMCD.OBJPRIM" Mandatory="No" OrderNumber="10"><def:WhereClauseRef WhereClauseOID="WC.TS.TSPARMCD.OBJPRIM" /></ItemRef><ItemRef ItemOID="IT.TS.TSPARMCD.OBJSEC" Mandatory="No" OrderNumber="11"><def:WhereClauseRef WhereClauseOID="WC.TS.TSPARMCD.OBJSEC" /></ItemRef><ItemRef ItemOID="IT.TS.TSPARMCD.PLANSUB" Mandatory="No" OrderNumber="12"><def:WhereClauseRef WhereClauseOID="WC.TS.TSPARMCD.PLANSUB" /></ItemRef><ItemRef ItemOID="IT.TS.TSPARMCD.RANDOM" Mandatory="No" OrderNumber="13"><def:WhereClauseRef WhereClauseOID="WC.TS.TSPARMCD.RANDOM" /></ItemRef><ItemRef ItemOID="IT.TS.TSPARMCD.ROUTE" Mandatory="No" OrderNumber="14"><def:WhereClauseRef WhereClauseOID="WC.TS.TSPARMCD.ROUTE" /></ItemRef><ItemRef ItemOID="IT.TS.TSPARMCD.SEXPOP" Mandatory="No" OrderNumber="15"><def:WhereClauseRef WhereClauseOID="WC.TS.TSPARMCD.SEXPOP" /></ItemRef><ItemRef ItemOID="IT.TS.TSPARMCD.SPONSOR" Mandatory="No" OrderNumber="16"><def:WhereClauseRef WhereClauseOID="WC.TS.TSPARMCD.SPONSOR" /></ItemRef><ItemRef ItemOID="IT.TS.TSPARMCD.TBLIND" Mandatory="No" OrderNumber="17"><def:WhereClauseRef WhereClauseOID="WC.TS.TSPARMCD.TBLIND" /></ItemRef><ItemRef ItemOID="IT.TS.TSPARMCD.TCNTRL" Mandatory="No" OrderNumber="18"><def:WhereClauseRef WhereClauseOID="WC.TS.TSPARMCD.TCNTRL" /></ItemRef><ItemRef ItemOID="IT.TS.TSPARMCD.TINDTP" Mandatory="No" OrderNumber="19"><def:WhereClauseRef WhereClauseOID="WC.TS.TSPARMCD.TINDTP" /></ItemRef><ItemRef ItemOID="IT.TS.TSPARMCD.TITLE" Mandatory="No" OrderNumber="20"><def:WhereClauseRef WhereClauseOID="WC.TS.TSPARMCD.TITLE" /></ItemRef><ItemRef ItemOID="IT.TS.TSPARMCD.TPHASE" Mandatory="No" OrderNumber="21"><def:WhereClauseRef WhereClauseOID="WC.TS.TSPARMCD.TPHASE" /></ItemRef><ItemRef ItemOID="IT.TS.TSPARMCD.TRT" Mandatory="No" OrderNumber="22"><def:WhereClauseRef WhereClauseOID="WC.TS.TSPARMCD.TRT" /></ItemRef><ItemRef ItemOID="IT.TS.TSPARMCD.TTYPE" Mandatory="No" OrderNumber="23"><def:WhereClauseRef WhereClauseOID="WC.TS.TSPARMCD.TTYPE" /></ItemRef></def:ValueListDef><def:ValueListDef OID="VL.VS.VSORRES"><ItemRef ItemOID="IT.VS.VSTESTCD.DIABP" Mandatory="Yes" OrderNumber="1"><def:WhereClauseRef WhereClauseOID="WC.VS.VSTESTCD.DIABP" /></ItemRef><ItemRef ItemOID="IT.VS.VSTESTCD.FRMSIZE" Mandatory="No" OrderNumber="2"><def:WhereClauseRef WhereClauseOID="WC.VS.VSTESTCD.FRMSIZE" /></ItemRef><ItemRef ItemOID="IT.VS.VSTESTCD.HEIGHT" Mandatory="Yes" OrderNumber="3"><def:WhereClauseRef WhereClauseOID="WC.VS.VSTESTCD.HEIGHT" /></ItemRef><ItemRef ItemOID="IT.VS.VSTESTCD.PULSE" Mandatory="No" OrderNumber="4"><def:WhereClauseRef WhereClauseOID="WC.VS.VSTESTCD.PULSE" /></ItemRef><ItemRef ItemOID="IT.VS.VSTESTCD.SYSBP" Mandatory="Yes" OrderNumber="5"><def:WhereClauseRef WhereClauseOID="WC.VS.VSTESTCD.SYSBP" /></ItemRef><ItemRef ItemOID="IT.VS.VSTESTCD.WEIGHT" Mandatory="Yes" OrderNumber="6"><def:WhereClauseRef WhereClauseOID="WC.VS.VSTESTCD.WEIGHT" /></ItemRef></def:ValueListDef><def:ValueListDef OID="VL.VS.VSORRESU"><ItemRef ItemOID="IT.VS.VSTESTCD.HEIGHT.[DM].COUNTRY.CMETRIC" Mandatory="Yes" OrderNumber="1"><def:WhereClauseRef WhereClauseOID="WC.VS.VSTESTCD.HEIGHT.[DM].COUNTRY.CMETRIC" /></ItemRef><ItemRef ItemOID="IT.VS.VSTESTCD.HEIGHT.[DM].COUNTRY.CNMETRIC" Mandatory="Yes" OrderNumber="2"><def:WhereClauseRef WhereClauseOID="WC.VS.VSTESTCD.HEIGHT.[DM].COUNTRY.CNMETRIC" /></ItemRef><ItemRef ItemOID="IT.VS.VSTESTCD.WEIGHT.[DM].COUNTRY.CMETRIC" Mandatory="Yes" OrderNumber="3"><def:WhereClauseRef WhereClauseOID="WC.VS.VSTESTCD.WEIGHT.[DM].COUNTRY.CMETRIC" /></ItemRef><ItemRef ItemOID="IT.VS.VSTESTCD.WEIGHT.[DM].COUNTRY.CNMETRIC" Mandatory="Yes" OrderNumber="4"><def:WhereClauseRef WhereClauseOID="WC.VS.VSTESTCD.WEIGHT.[DM].COUNTRY.CNMETRIC" /></ItemRef></def:ValueListDef><def:WhereClauseDef OID="WC.DA.DATESTCD.DISPAMT"><RangeCheck Comparator="EQ" SoftHard="Soft" def:ItemOID="IT.DA.DATESTCD"><CheckValue>DISPAMT</CheckValue></RangeCheck></def:WhereClauseDef><def:WhereClauseDef OID="WC.DA.DATESTCD.RETAMT"><RangeCheck Comparator="EQ" SoftHard="Soft" def:ItemOID="IT.DA.DATESTCD"><CheckValue>RETAMT</CheckValue></RangeCheck></def:WhereClauseDef><def:WhereClauseDef OID="WC.EG.EGTESTCD.INTP"><RangeCheck Comparator="EQ" SoftHard="Soft" def:ItemOID="IT.EG.EGTESTCD"><CheckValue>INTP</CheckValue></RangeCheck></def:WhereClauseDef><def:WhereClauseDef OID="WC.EG.EGTESTCD.PRMEAN"><RangeCheck Comparator="EQ" SoftHard="Soft" def:ItemOID="IT.EG.EGTESTCD"><CheckValue>PRMEAN</CheckValue></RangeCheck></def:WhereClauseDef><def:WhereClauseDef OID="WC.EG.EGTESTCD.QRSDUR"><RangeCheck Comparator="EQ" SoftHard="Soft" def:ItemOID="IT.EG.EGTESTCD"><CheckValue>QRSDUR</CheckValue></RangeCheck></def:WhereClauseDef><def:WhereClauseDef OID="WC.EG.EGTESTCD.QTMEAN"><RangeCheck Comparator="EQ" SoftHard="Soft" def:ItemOID="IT.EG.EGTESTCD"><CheckValue>QTMEAN</CheckValue></RangeCheck></def:WhereClauseDef><def:WhereClauseDef OID="WC.EG.EGTESTCD.VRMEAN"><RangeCheck Comparator="EQ" SoftHard="Soft" def:ItemOID="IT.EG.EGTESTCD"><CheckValue>VRMEAN</CheckValue></RangeCheck></def:WhereClauseDef><def:WhereClauseDef OID="WC.EG.EGTESTCD.QTCB"><RangeCheck Comparator="EQ" SoftHard="Soft" def:ItemOID="IT.EG.EGTESTCD"><CheckValue>QTCB</CheckValue></RangeCheck></def:WhereClauseDef><def:WhereClauseDef OID="WC.EG.EGTESTCD.QTCF"><RangeCheck Comparator="EQ" SoftHard="Soft" def:ItemOID="IT.EG.EGTESTCD"><CheckValue>QTCF</CheckValue></RangeCheck></def:WhereClauseDef><def:WhereClauseDef OID="WC.IE.IETESTCD.EXCL01"><RangeCheck Comparator="EQ" SoftHard="Soft" def:ItemOID="IT.IE.IETESTCD"><CheckValue>EXCL01</CheckValue></RangeCheck></def:WhereClauseDef><def:WhereClauseDef OID="WC.IE.IETESTCD.EXCL02"><RangeCheck Comparator="EQ" SoftHard="Soft" def:ItemOID="IT.IE.IETESTCD"><CheckValue>EXCL02</CheckValue></RangeCheck></def:WhereClauseDef><def:WhereClauseDef OID="WC.IE.IETESTCD.EXCL03"><RangeCheck Comparator="EQ" SoftHard="Soft" def:ItemOID="IT.IE.IETESTCD"><CheckValue>EXCL03</CheckValue></RangeCheck></def:WhereClauseDef><def:WhereClauseDef OID="WC.IE.IETESTCD.INCL01"><RangeCheck Comparator="EQ" SoftHard="Soft" def:ItemOID="IT.IE.IETESTCD"><CheckValue>INCL01</CheckValue></RangeCheck></def:WhereClauseDef><def:WhereClauseDef OID="WC.IE.IETESTCD.INCL02"><RangeCheck Comparator="EQ" SoftHard="Soft" def:ItemOID="IT.IE.IETESTCD"><CheckValue>INCL02</CheckValue></RangeCheck></def:WhereClauseDef><def:WhereClauseDef OID="WC.IE.IETESTCD.INCL03"><RangeCheck Comparator="EQ" SoftHard="Soft" def:ItemOID="IT.IE.IETESTCD"><CheckValue>INCL03</CheckValue></RangeCheck></def:WhereClauseDef><def:WhereClauseDef OID="WC.LB.LBTESTCD.BILI.LBCAT.CHEMISTRY.LBSPEC.BLOOD"><RangeCheck Comparator="EQ" SoftHard="Soft" def:ItemOID="IT.LB.LBTESTCD"><CheckValue>BILI</CheckValue></RangeCheck><RangeCheck Comparator="EQ" SoftHard="Soft" def:ItemOID="IT.LB.LBCAT"><CheckValue>CHEMISTRY</CheckValue></RangeCheck><RangeCheck Comparator="EQ" SoftHard="Soft" def:ItemOID="IT.LB.LBSPEC"><CheckValue>BLOOD</CheckValue></RangeCheck></def:WhereClauseDef><def:WhereClauseDef OID="WC.LB.LBTESTCD.BUN.LBCAT.CHEMISTRY.LBSPEC.BLOOD"><RangeCheck Comparator="EQ" SoftHard="Soft" def:ItemOID="IT.LB.LBTESTCD"><CheckValue>BUN</CheckValue></RangeCheck><RangeCheck Comparator="EQ" SoftHard="Soft" def:ItemOID="IT.LB.LBCAT"><CheckValue>CHEMISTRY</CheckValue></RangeCheck><RangeCheck Comparator="EQ" SoftHard="Soft" def:ItemOID="IT.LB.LBSPEC"><CheckValue>BLOOD</CheckValue></RangeCheck></def:WhereClauseDef><def:WhereClauseDef OID="WC.LB.LBTESTCD.GLUC.LBCAT.CHEMISTRY.LBSPEC.BLOOD"><RangeCheck Comparator="EQ" SoftHard="Soft" def:ItemOID="IT.LB.LBTESTCD"><CheckValue>GLUC</CheckValue></RangeCheck><RangeCheck Comparator="EQ" SoftHard="Soft" def:ItemOID="IT.LB.LBCAT"><CheckValue>CHEMISTRY</CheckValue></RangeCheck><RangeCheck Comparator="EQ" SoftHard="Soft" def:ItemOID="IT.LB.LBSPEC"><CheckValue>BLOOD</CheckValue></RangeCheck></def:WhereClauseDef><def:WhereClauseDef OID="WC.LB.LBTESTCD.GLUC.LBCAT.URINALYSIS.LBSPEC.URINE.LBMETHOD.DIPSTICK"><RangeCheck Comparator="EQ" SoftHard="Soft" def:ItemOID="IT.LB.LBTESTCD"><CheckValue>GLUC</CheckValue></RangeCheck><RangeCheck Comparator="EQ" SoftHard="Soft" def:ItemOID="IT.LB.LBCAT"><CheckValue>URINALYSIS</CheckValue></RangeCheck><RangeCheck Comparator="EQ" SoftHard="Soft" def:ItemOID="IT.LB.LBSPEC"><CheckValue>URINE</CheckValue></RangeCheck><RangeCheck Comparator="EQ" SoftHard="Soft" def:ItemOID="IT.LB.LBMETHOD"><CheckValue>DIPSTICK</CheckValue></RangeCheck></def:WhereClauseDef><def:WhereClauseDef OID="WC.LB.LBTESTCD.GLUC.LBCAT.URINALYSIS.LBSPEC.URINE.LBMETHOD.QUANT"><RangeCheck Comparator="EQ" SoftHard="Soft" def:ItemOID="IT.LB.LBTESTCD"><CheckValue>GLUC</CheckValue></RangeCheck><RangeCheck Comparator="EQ" SoftHard="Soft" def:ItemOID="IT.LB.LBCAT"><CheckValue>URINALYSIS</CheckValue></RangeCheck><RangeCheck Comparator="EQ" SoftHard="Soft" def:ItemOID="IT.LB.LBSPEC"><CheckValue>URINE</CheckValue></RangeCheck><RangeCheck Comparator="EQ" SoftHard="Soft" def:ItemOID="IT.LB.LBMETHOD"><CheckValue>QUANT</CheckValue></RangeCheck></def:WhereClauseDef><def:WhereClauseDef OID="WC.LB.LBTESTCD.HCT.LBCAT.HEMATOLOGY.LBSPEC.BLOOD"><RangeCheck Comparator="EQ" SoftHard="Soft" def:ItemOID="IT.LB.LBTESTCD"><CheckValue>HCT</CheckValue></RangeCheck><RangeCheck Comparator="EQ" SoftHard="Soft" def:ItemOID="IT.LB.LBCAT"><CheckValue>HEMATOLOGY</CheckValue></RangeCheck><RangeCheck Comparator="EQ" SoftHard="Soft" def:ItemOID="IT.LB.LBSPEC"><CheckValue>BLOOD</CheckValue></RangeCheck></def:WhereClauseDef><def:WhereClauseDef OID="WC.LB.LBTESTCD.HGB.LBCAT.HEMATOLOGY.LBSPEC.BLOOD"><RangeCheck Comparator="EQ" SoftHard="Soft" def:ItemOID="IT.LB.LBTESTCD"><CheckValue>HGB</CheckValue></RangeCheck><RangeCheck Comparator="EQ" SoftHard="Soft" def:ItemOID="IT.LB.LBCAT"><CheckValue>HEMATOLOGY</CheckValue></RangeCheck><RangeCheck Comparator="EQ" SoftHard="Soft" def:ItemOID="IT.LB.LBSPEC"><CheckValue>BLOOD</CheckValue></RangeCheck></def:WhereClauseDef><def:WhereClauseDef OID="WC.LB.LBTESTCD.LYM.LBCAT.HEMATOLOGY.LBSPEC.BLOOD"><RangeCheck Comparator="EQ" SoftHard="Soft" def:ItemOID="IT.LB.LBTESTCD"><CheckValue>LYM</CheckValue></RangeCheck><RangeCheck Comparator="EQ" SoftHard="Soft" def:ItemOID="IT.LB.LBCAT"><CheckValue>HEMATOLOGY</CheckValue></RangeCheck><RangeCheck Comparator="EQ" SoftHard="Soft" def:ItemOID="IT.LB.LBSPEC"><CheckValue>BLOOD</CheckValue></RangeCheck></def:WhereClauseDef><def:WhereClauseDef OID="WC.LB.LBTESTCD.OCCBLD.LBCAT.URINALYSIS.LBSPEC.URINE"><RangeCheck Comparator="EQ" SoftHard="Soft" def:ItemOID="IT.LB.LBTESTCD"><CheckValue>OCCBLD</CheckValue></RangeCheck><RangeCheck Comparator="EQ" SoftHard="Soft" def:ItemOID="IT.LB.LBCAT"><CheckValue>URINALYSIS</CheckValue></RangeCheck><RangeCheck Comparator="EQ" SoftHard="Soft" def:ItemOID="IT.LB.LBSPEC"><CheckValue>URINE</CheckValue></RangeCheck></def:WhereClauseDef><def:WhereClauseDef OID="WC.LB.LBTESTCD.PH.LBCAT.URINALYSIS.LBSPEC.URINE"><RangeCheck Comparator="EQ" SoftHard="Soft" def:ItemOID="IT.LB.LBTESTCD"><CheckValue>PH</CheckValue></RangeCheck><RangeCheck Comparator="EQ" SoftHard="Soft" def:ItemOID="IT.LB.LBCAT"><CheckValue>URINALYSIS</CheckValue></RangeCheck><RangeCheck Comparator="EQ" SoftHard="Soft" def:ItemOID="IT.LB.LBSPEC"><CheckValue>URINE</CheckValue></RangeCheck></def:WhereClauseDef><def:WhereClauseDef OID="WC.LB.LBTESTCD.VITB12.LBCAT.CHEMISTRY.LBSPEC.SERUM"><RangeCheck Comparator="EQ" SoftHard="Soft" def:ItemOID="IT.LB.LBTESTCD"><CheckValue>VITB12</CheckValue></RangeCheck><RangeCheck Comparator="EQ" SoftHard="Soft" def:ItemOID="IT.LB.LBCAT"><CheckValue>CHEMISTRY</CheckValue></RangeCheck><RangeCheck Comparator="EQ" SoftHard="Soft" def:ItemOID="IT.LB.LBSPEC"><CheckValue>SERUM</CheckValue></RangeCheck></def:WhereClauseDef><def:WhereClauseDef OID="WC.LB.LBTESTCD.VITB9.LBCAT.CHEMISTRY.LBSPEC.BLOOD"><RangeCheck Comparator="EQ" SoftHard="Soft" def:ItemOID="IT.LB.LBTESTCD"><CheckValue>VITB9</CheckValue></RangeCheck><RangeCheck Comparator="EQ" SoftHard="Soft" def:ItemOID="IT.LB.LBCAT"><CheckValue>CHEMISTRY</CheckValue></RangeCheck><RangeCheck Comparator="EQ" SoftHard="Soft" def:ItemOID="IT.LB.LBSPEC"><CheckValue>BLOOD</CheckValue></RangeCheck></def:WhereClauseDef><def:WhereClauseDef OID="WC.PE.PETESTCD.PE01"><RangeCheck Comparator="EQ" SoftHard="Soft" def:ItemOID="IT.PE.PETESTCD"><CheckValue>PE01</CheckValue></RangeCheck></def:WhereClauseDef><def:WhereClauseDef OID="WC.PE.PETESTCD.PE02"><RangeCheck Comparator="EQ" SoftHard="Soft" def:ItemOID="IT.PE.PETESTCD"><CheckValue>PE02</CheckValue></RangeCheck></def:WhereClauseDef><def:WhereClauseDef OID="WC.PE.PETESTCD.PE03"><RangeCheck Comparator="EQ" SoftHard="Soft" def:ItemOID="IT.PE.PETESTCD"><CheckValue>PE03</CheckValue></RangeCheck></def:WhereClauseDef><def:WhereClauseDef OID="WC.PE.PETESTCD.PE04"><RangeCheck Comparator="EQ" SoftHard="Soft" def:ItemOID="IT.PE.PETESTCD"><CheckValue>PE04</CheckValue></RangeCheck></def:WhereClauseDef><def:WhereClauseDef OID="WC.PE.PETESTCD.PE05"><RangeCheck Comparator="EQ" SoftHard="Soft" def:ItemOID="IT.PE.PETESTCD"><CheckValue>PE05</CheckValue></RangeCheck></def:WhereClauseDef><def:WhereClauseDef OID="WC.PE.PETESTCD.PE06"><RangeCheck Comparator="EQ" SoftHard="Soft" def:ItemOID="IT.PE.PETESTCD"><CheckValue>PE06</CheckValue></RangeCheck></def:WhereClauseDef><def:WhereClauseDef OID="WC.PE.PETESTCD.PE07"><RangeCheck Comparator="EQ" SoftHard="Soft" def:ItemOID="IT.PE.PETESTCD"><CheckValue>PE07</CheckValue></RangeCheck></def:WhereClauseDef><def:WhereClauseDef OID="WC.PE.PETESTCD.PE08"><RangeCheck Comparator="EQ" SoftHard="Soft" def:ItemOID="IT.PE.PETESTCD"><CheckValue>PE08</CheckValue></RangeCheck></def:WhereClauseDef><def:WhereClauseDef OID="WC.PE.PETESTCD.PE09"><RangeCheck Comparator="EQ" SoftHard="Soft" def:ItemOID="IT.PE.PETESTCD"><CheckValue>PE09</CheckValue></RangeCheck></def:WhereClauseDef><def:WhereClauseDef OID="WC.QS.QSTESTCD.CGIGLOB"><RangeCheck Comparator="EQ" SoftHard="Soft" def:ItemOID="IT.QS.QSTESTCD"><CheckValue>CGIGLOB</CheckValue></RangeCheck></def:WhereClauseDef><def:WhereClauseDef OID="WC.QS.QSTESTCD.CSDD01"><RangeCheck Comparator="EQ" SoftHard="Soft" def:ItemOID="IT.QS.QSTESTCD"><CheckValue>CSDD01</CheckValue></RangeCheck></def:WhereClauseDef><def:WhereClauseDef OID="WC.QS.QSTESTCD.CSDD02"><RangeCheck Comparator="EQ" SoftHard="Soft" def:ItemOID="IT.QS.QSTESTCD"><CheckValue>CSDD02</CheckValue></RangeCheck></def:WhereClauseDef><def:WhereClauseDef OID="WC.QS.QSTESTCD.CSDD03"><RangeCheck Comparator="EQ" SoftHard="Soft" def:ItemOID="IT.QS.QSTESTCD"><CheckValue>CSDD03</CheckValue></RangeCheck></def:WhereClauseDef><def:WhereClauseDef OID="WC.QS.QSTESTCD.CSDD04"><RangeCheck Comparator="EQ" SoftHard="Soft" def:ItemOID="IT.QS.QSTESTCD"><CheckValue>CSDD04</CheckValue></RangeCheck></def:WhereClauseDef><def:WhereClauseDef OID="WC.QS.QSTESTCD.CSDD05"><RangeCheck Comparator="EQ" SoftHard="Soft" def:ItemOID="IT.QS.QSTESTCD"><CheckValue>CSDD05</CheckValue></RangeCheck></def:WhereClauseDef><def:WhereClauseDef OID="WC.QS.QSTESTCD.CSDD06"><RangeCheck Comparator="EQ" SoftHard="Soft" def:ItemOID="IT.QS.QSTESTCD"><CheckValue>CSDD06</CheckValue></RangeCheck></def:WhereClauseDef><def:WhereClauseDef OID="WC.QS.QSTESTCD.CSDD07"><RangeCheck Comparator="EQ" SoftHard="Soft" def:ItemOID="IT.QS.QSTESTCD"><CheckValue>CSDD07</CheckValue></RangeCheck></def:WhereClauseDef><def:WhereClauseDef OID="WC.QS.QSTESTCD.CSDD08"><RangeCheck Comparator="EQ" SoftHard="Soft" def:ItemOID="IT.QS.QSTESTCD"><CheckValue>CSDD08</CheckValue></RangeCheck></def:WhereClauseDef><def:WhereClauseDef OID="WC.QS.QSTESTCD.CSDD09"><RangeCheck Comparator="EQ" SoftHard="Soft" def:ItemOID="IT.QS.QSTESTCD"><CheckValue>CSDD09</CheckValue></RangeCheck></def:WhereClauseDef><def:WhereClauseDef OID="WC.QS.QSTESTCD.CSDD10"><RangeCheck Comparator="EQ" SoftHard="Soft" def:ItemOID="IT.QS.QSTESTCD"><CheckValue>CSDD10</CheckValue></RangeCheck></def:WhereClauseDef><def:WhereClauseDef OID="WC.QS.QSTESTCD.CSDD11"><RangeCheck Comparator="EQ" SoftHard="Soft" def:ItemOID="IT.QS.QSTESTCD"><CheckValue>CSDD11</CheckValue></RangeCheck></def:WhereClauseDef><def:WhereClauseDef OID="WC.QS.QSTESTCD.CSDD12"><RangeCheck Comparator="EQ" SoftHard="Soft" def:ItemOID="IT.QS.QSTESTCD"><CheckValue>CSDD12</CheckValue></RangeCheck></def:WhereClauseDef><def:WhereClauseDef OID="WC.QS.QSTESTCD.CSDD13"><RangeCheck Comparator="EQ" SoftHard="Soft" def:ItemOID="IT.QS.QSTESTCD"><CheckValue>CSDD13</CheckValue></RangeCheck></def:WhereClauseDef><def:WhereClauseDef OID="WC.QS.QSTESTCD.CSDD14"><RangeCheck Comparator="EQ" SoftHard="Soft" def:ItemOID="IT.QS.QSTESTCD"><CheckValue>CSDD14</CheckValue></RangeCheck></def:WhereClauseDef><def:WhereClauseDef OID="WC.QS.QSTESTCD.CSDD15"><RangeCheck Comparator="EQ" SoftHard="Soft" def:ItemOID="IT.QS.QSTESTCD"><CheckValue>CSDD15</CheckValue></RangeCheck></def:WhereClauseDef><def:WhereClauseDef OID="WC.QS.QSTESTCD.CSDD16"><RangeCheck Comparator="EQ" SoftHard="Soft" def:ItemOID="IT.QS.QSTESTCD"><CheckValue>CSDD16</CheckValue></RangeCheck></def:WhereClauseDef><def:WhereClauseDef OID="WC.QS.QSTESTCD.CSDD17"><RangeCheck Comparator="EQ" SoftHard="Soft" def:ItemOID="IT.QS.QSTESTCD"><CheckValue>CSDD17</CheckValue></RangeCheck></def:WhereClauseDef><def:WhereClauseDef OID="WC.QS.QSTESTCD.CSDD18"><RangeCheck Comparator="EQ" SoftHard="Soft" def:ItemOID="IT.QS.QSTESTCD"><CheckValue>CSDD18</CheckValue></RangeCheck></def:WhereClauseDef><def:WhereClauseDef OID="WC.QS.QSTESTCD.CSDD19"><RangeCheck Comparator="EQ" SoftHard="Soft" def:ItemOID="IT.QS.QSTESTCD"><CheckValue>CSDD19</CheckValue></RangeCheck></def:WhereClauseDef><def:WhereClauseDef OID="WC.QS.QSTESTCD.CSDDTOT"><RangeCheck Comparator="EQ" SoftHard="Soft" def:ItemOID="IT.QS.QSTESTCD"><CheckValue>CSDDTOT</CheckValue></RangeCheck></def:WhereClauseDef><def:WhereClauseDef OID="WC.QS.QSTESTCD.MMSEA1"><RangeCheck Comparator="EQ" SoftHard="Soft" def:ItemOID="IT.QS.QSTESTCD"><CheckValue>MMSEA1</CheckValue></RangeCheck></def:WhereClauseDef><def:WhereClauseDef OID="WC.QS.QSTESTCD.MMSEA2"><RangeCheck Comparator="EQ" SoftHard="Soft" def:ItemOID="IT.QS.QSTESTCD"><CheckValue>MMSEA2</CheckValue></RangeCheck></def:WhereClauseDef><def:WhereClauseDef OID="WC.QS.QSTESTCD.MMSEB"><RangeCheck Comparator="EQ" SoftHard="Soft" def:ItemOID="IT.QS.QSTESTCD"><CheckValue>MMSEB</CheckValue></RangeCheck></def:WhereClauseDef><def:WhereClauseDef OID="WC.QS.QSTESTCD.MMSEC"><RangeCheck Comparator="EQ" SoftHard="Soft" def:ItemOID="IT.QS.QSTESTCD"><CheckValue>MMSEC</CheckValue></RangeCheck></def:WhereClauseDef><def:WhereClauseDef OID="WC.QS.QSTESTCD.MMSED"><RangeCheck Comparator="EQ" SoftHard="Soft" def:ItemOID="IT.QS.QSTESTCD"><CheckValue>MMSED</CheckValue></RangeCheck></def:WhereClauseDef><def:WhereClauseDef OID="WC.QS.QSTESTCD.MMSEET"><RangeCheck Comparator="EQ" SoftHard="Soft" def:ItemOID="IT.QS.QSTESTCD"><CheckValue>MMSEET</CheckValue></RangeCheck></def:WhereClauseDef><def:WhereClauseDef OID="WC.QS.QSTESTCD.MMSETOT"><RangeCheck Comparator="EQ" SoftHard="Soft" def:ItemOID="IT.QS.QSTESTCD"><CheckValue>MMSETOT</CheckValue></RangeCheck></def:WhereClauseDef><def:WhereClauseDef OID="WC.SC.SCTESTCD.EDLEVEL"><RangeCheck Comparator="EQ" SoftHard="Soft" def:ItemOID="IT.SC.SCTESTCD"><CheckValue>EDLEVEL</CheckValue></RangeCheck></def:WhereClauseDef><def:WhereClauseDef OID="WC.SC.SCTESTCD.MARISTAT"><RangeCheck Comparator="EQ" SoftHard="Soft" def:ItemOID="IT.SC.SCTESTCD"><CheckValue>MARISTAT</CheckValue></RangeCheck></def:WhereClauseDef><def:WhereClauseDef OID="WC.SC.SCTESTCD.SUBJINIT"><RangeCheck Comparator="EQ" SoftHard="Soft" def:ItemOID="IT.SC.SCTESTCD"><CheckValue>SUBJINIT</CheckValue></RangeCheck></def:WhereClauseDef><def:WhereClauseDef OID="WC.SUPPAE.QNAM.AETRTEM"><RangeCheck Comparator="EQ" SoftHard="Soft" def:ItemOID="IT.SUPPAE.QNAM"><CheckValue>AETRTEM</CheckValue></RangeCheck></def:WhereClauseDef><def:WhereClauseDef OID="WC.SUPPAE.QNAM.HLGT"><RangeCheck Comparator="EQ" SoftHard="Soft" def:ItemOID="IT.SUPPAE.QNAM"><CheckValue>HLGT</CheckValue></RangeCheck></def:WhereClauseDef><def:WhereClauseDef OID="WC.SUPPAE.QNAM.HLT"><RangeCheck Comparator="EQ" SoftHard="Soft" def:ItemOID="IT.SUPPAE.QNAM"><CheckValue>HLT</CheckValue></RangeCheck></def:WhereClauseDef><def:WhereClauseDef OID="WC.SUPPAE.QNAM.LLT"><RangeCheck Comparator="EQ" SoftHard="Soft" def:ItemOID="IT.SUPPAE.QNAM"><CheckValue>LLT</CheckValue></RangeCheck></def:WhereClauseDef><def:WhereClauseDef OID="WC.SUPPCM.QNAM.ATC4CODE"><RangeCheck Comparator="EQ" SoftHard="Soft" def:ItemOID="IT.SUPPCM.QNAM"><CheckValue>ATC4CODE</CheckValue></RangeCheck></def:WhereClauseDef><def:WhereClauseDef OID="WC.SUPPCM.QNAM.ATC4TERM"><RangeCheck Comparator="EQ" SoftHard="Soft" def:ItemOID="IT.SUPPCM.QNAM"><CheckValue>ATC4TERM</CheckValue></RangeCheck></def:WhereClauseDef><def:WhereClauseDef OID="WC.SUPPCM.QNAM.CPREFCD"><RangeCheck Comparator="EQ" SoftHard="Soft" def:ItemOID="IT.SUPPCM.QNAM"><CheckValue>CPREFCD</CheckValue></RangeCheck></def:WhereClauseDef><def:WhereClauseDef OID="WC.SUPPCM.QNAM.PDDREAS"><RangeCheck Comparator="EQ" SoftHard="Soft" def:ItemOID="IT.SUPPCM.QNAM"><CheckValue>PDDREAS</CheckValue></RangeCheck></def:WhereClauseDef><def:WhereClauseDef OID="WC.SUPPCM.QNAM.PDRESP"><RangeCheck Comparator="EQ" SoftHard="Soft" def:ItemOID="IT.SUPPCM.QNAM"><CheckValue>PDRESP</CheckValue></RangeCheck></def:WhereClauseDef><def:WhereClauseDef OID="WC.SUPPDM.QNAM.RACE1"><RangeCheck Comparator="EQ" SoftHard="Soft" def:ItemOID="IT.SUPPDM.QNAM"><CheckValue>RACE1</CheckValue></RangeCheck></def:WhereClauseDef><def:WhereClauseDef OID="WC.SUPPDM.QNAM.RACE2"><RangeCheck Comparator="EQ" SoftHard="Soft" def:ItemOID="IT.SUPPDM.QNAM"><CheckValue>RACE2</CheckValue></RangeCheck></def:WhereClauseDef><def:WhereClauseDef OID="WC.SUPPDM.QNAM.RACE3"><RangeCheck Comparator="EQ" SoftHard="Soft" def:ItemOID="IT.SUPPDM.QNAM"><CheckValue>RACE3</CheckValue></RangeCheck></def:WhereClauseDef><def:WhereClauseDef OID="WC.SUPPDM.QNAM.RACEOTH"><RangeCheck Comparator="EQ" SoftHard="Soft" def:ItemOID="IT.SUPPDM.QNAM"><CheckValue>RACEOTH</CheckValue></RangeCheck></def:WhereClauseDef><def:WhereClauseDef OID="WC.SUPPDM.QNAM.RAND"><RangeCheck Comparator="EQ" SoftHard="Soft" def:ItemOID="IT.SUPPDM.QNAM"><CheckValue>RAND</CheckValue></RangeCheck></def:WhereClauseDef><def:WhereClauseDef OID="WC.SUPPDM.QNAM.RANDNO"><RangeCheck Comparator="EQ" SoftHard="Soft" def:ItemOID="IT.SUPPDM.QNAM"><CheckValue>RANDNO</CheckValue></RangeCheck></def:WhereClauseDef><def:WhereClauseDef OID="WC.SUPPDM.QNAM.SAFETY"><RangeCheck Comparator="EQ" SoftHard="Soft" def:ItemOID="IT.SUPPDM.QNAM"><CheckValue>SAFETY</CheckValue></RangeCheck></def:WhereClauseDef><def:WhereClauseDef OID="WC.SUPPEG.QNAM.EGCLSIG"><RangeCheck Comparator="EQ" SoftHard="Soft" def:ItemOID="IT.SUPPEG.QNAM"><CheckValue>EGCLSIG</CheckValue></RangeCheck></def:WhereClauseDef><def:WhereClauseDef OID="WC.SUPPEX.QNAM.SMNO"><RangeCheck Comparator="EQ" SoftHard="Soft" def:ItemOID="IT.SUPPEX.QNAM"><CheckValue>SMNO</CheckValue></RangeCheck></def:WhereClauseDef><def:WhereClauseDef OID="WC.SUPPLB.QNAM.LBCLSIG"><RangeCheck Comparator="EQ" SoftHard="Soft" def:ItemOID="IT.SUPPLB.QNAM"><CheckValue>LBCLSIG</CheckValue></RangeCheck></def:WhereClauseDef><def:WhereClauseDef OID="WC.SUPPQS.QNAM.RTRINIT"><RangeCheck Comparator="EQ" SoftHard="Soft" def:ItemOID="IT.SUPPQS.QNAM"><CheckValue>RTRINIT</CheckValue></RangeCheck></def:WhereClauseDef><def:WhereClauseDef OID="WC.SUPPVS.QNAM.VSCLSIG"><RangeCheck Comparator="EQ" SoftHard="Soft" def:ItemOID="IT.SUPPVS.QNAM"><CheckValue>VSCLSIG</CheckValue></RangeCheck></def:WhereClauseDef><def:WhereClauseDef OID="WC.TS.TSPARMCD.ADDON"><RangeCheck Comparator="EQ" SoftHard="Soft" def:ItemOID="IT.TS.TSPARMCD"><CheckValue>ADDON</CheckValue></RangeCheck></def:WhereClauseDef><def:WhereClauseDef OID="WC.TS.TSPARMCD.AGEMAX"><RangeCheck Comparator="EQ" SoftHard="Soft" def:ItemOID="IT.TS.TSPARMCD"><CheckValue>AGEMAX</CheckValue></RangeCheck></def:WhereClauseDef><def:WhereClauseDef OID="WC.TS.TSPARMCD.AGEMIN"><RangeCheck Comparator="EQ" SoftHard="Soft" def:ItemOID="IT.TS.TSPARMCD"><CheckValue>AGEMIN</CheckValue></RangeCheck></def:WhereClauseDef><def:WhereClauseDef OID="WC.TS.TSPARMCD.AGESPAN"><RangeCheck Comparator="EQ" SoftHard="Soft" def:ItemOID="IT.TS.TSPARMCD"><CheckValue>AGESPAN</CheckValue></RangeCheck></def:WhereClauseDef><def:WhereClauseDef OID="WC.TS.TSPARMCD.AGEU"><RangeCheck Comparator="EQ" SoftHard="Soft" def:ItemOID="IT.TS.TSPARMCD"><CheckValue>AGEU</CheckValue></RangeCheck></def:WhereClauseDef><def:WhereClauseDef OID="WC.TS.TSPARMCD.DOSE"><RangeCheck Comparator="EQ" SoftHard="Soft" def:ItemOID="IT.TS.TSPARMCD"><CheckValue>DOSE</CheckValue></RangeCheck></def:WhereClauseDef><def:WhereClauseDef OID="WC.TS.TSPARMCD.DOSFRQ"><RangeCheck Comparator="EQ" SoftHard="Soft" def:ItemOID="IT.TS.TSPARMCD"><CheckValue>DOSFRQ</CheckValue></RangeCheck></def:WhereClauseDef><def:WhereClauseDef OID="WC.TS.TSPARMCD.DOSU"><RangeCheck Comparator="EQ" SoftHard="Soft" def:ItemOID="IT.TS.TSPARMCD"><CheckValue>DOSU</CheckValue></RangeCheck></def:WhereClauseDef><def:WhereClauseDef OID="WC.TS.TSPARMCD.LENGTH"><RangeCheck Comparator="EQ" SoftHard="Soft" def:ItemOID="IT.TS.TSPARMCD"><CheckValue>LENGTH</CheckValue></RangeCheck></def:WhereClauseDef><def:WhereClauseDef OID="WC.TS.TSPARMCD.OBJPRIM"><RangeCheck Comparator="EQ" SoftHard="Soft" def:ItemOID="IT.TS.TSPARMCD"><CheckValue>OBJPRIM</CheckValue></RangeCheck></def:WhereClauseDef><def:WhereClauseDef OID="WC.TS.TSPARMCD.OBJSEC"><RangeCheck Comparator="EQ" SoftHard="Soft" def:ItemOID="IT.TS.TSPARMCD"><CheckValue>OBJSEC</CheckValue></RangeCheck></def:WhereClauseDef><def:WhereClauseDef OID="WC.TS.TSPARMCD.PLANSUB"><RangeCheck Comparator="EQ" SoftHard="Soft" def:ItemOID="IT.TS.TSPARMCD"><CheckValue>PLANSUB</CheckValue></RangeCheck></def:WhereClauseDef><def:WhereClauseDef OID="WC.TS.TSPARMCD.RANDOM"><RangeCheck Comparator="EQ" SoftHard="Soft" def:ItemOID="IT.TS.TSPARMCD"><CheckValue>RANDOM</CheckValue></RangeCheck></def:WhereClauseDef><def:WhereClauseDef OID="WC.TS.TSPARMCD.ROUTE"><RangeCheck Comparator="EQ" SoftHard="Soft" def:ItemOID="IT.TS.TSPARMCD"><CheckValue>ROUTE</CheckValue></RangeCheck></def:WhereClauseDef><def:WhereClauseDef OID="WC.TS.TSPARMCD.SEXPOP"><RangeCheck Comparator="EQ" SoftHard="Soft" def:ItemOID="IT.TS.TSPARMCD"><CheckValue>SEXPOP</CheckValue></RangeCheck></def:WhereClauseDef><def:WhereClauseDef OID="WC.TS.TSPARMCD.SPONSOR"><RangeCheck Comparator="EQ" SoftHard="Soft" def:ItemOID="IT.TS.TSPARMCD"><CheckValue>SPONSOR</CheckValue></RangeCheck></def:WhereClauseDef><def:WhereClauseDef OID="WC.TS.TSPARMCD.TBLIND"><RangeCheck Comparator="EQ" SoftHard="Soft" def:ItemOID="IT.TS.TSPARMCD"><CheckValue>TBLIND</CheckValue></RangeCheck></def:WhereClauseDef><def:WhereClauseDef OID="WC.TS.TSPARMCD.TCNTRL"><RangeCheck Comparator="EQ" SoftHard="Soft" def:ItemOID="IT.TS.TSPARMCD"><CheckValue>TCNTRL</CheckValue></RangeCheck></def:WhereClauseDef><def:WhereClauseDef OID="WC.TS.TSPARMCD.TINDTP"><RangeCheck Comparator="EQ" SoftHard="Soft" def:ItemOID="IT.TS.TSPARMCD"><CheckValue>TINDTP</CheckValue></RangeCheck></def:WhereClauseDef><def:WhereClauseDef OID="WC.TS.TSPARMCD.TITLE"><RangeCheck Comparator="EQ" SoftHard="Soft" def:ItemOID="IT.TS.TSPARMCD"><CheckValue>TITLE</CheckValue></RangeCheck></def:WhereClauseDef><def:WhereClauseDef OID="WC.TS.TSPARMCD.TPHASE"><RangeCheck Comparator="EQ" SoftHard="Soft" def:ItemOID="IT.TS.TSPARMCD"><CheckValue>TPHASE</CheckValue></RangeCheck></def:WhereClauseDef><def:WhereClauseDef OID="WC.TS.TSPARMCD.TRT"><RangeCheck Comparator="EQ" SoftHard="Soft" def:ItemOID="IT.TS.TSPARMCD"><CheckValue>TRT</CheckValue></RangeCheck></def:WhereClauseDef><def:WhereClauseDef OID="WC.TS.TSPARMCD.TTYPE"><RangeCheck Comparator="EQ" SoftHard="Soft" def:ItemOID="IT.TS.TSPARMCD"><CheckValue>TTYPE</CheckValue></RangeCheck></def:WhereClauseDef><def:WhereClauseDef OID="WC.VS.VSTESTCD.DIABP"><RangeCheck Comparator="EQ" SoftHard="Soft" def:ItemOID="IT.VS.VSTESTCD"><CheckValue>DIABP</CheckValue></RangeCheck></def:WhereClauseDef><def:WhereClauseDef OID="WC.VS.VSTESTCD.FRMSIZE"><RangeCheck Comparator="EQ" SoftHard="Soft" def:ItemOID="IT.VS.VSTESTCD"><CheckValue>FRMSIZE</CheckValue></RangeCheck></def:WhereClauseDef><def:WhereClauseDef OID="WC.VS.VSTESTCD.HEIGHT"><RangeCheck Comparator="EQ" SoftHard="Soft" def:ItemOID="IT.VS.VSTESTCD"><CheckValue>HEIGHT</CheckValue></RangeCheck></def:WhereClauseDef><def:WhereClauseDef OID="WC.VS.VSTESTCD.PULSE"><RangeCheck Comparator="EQ" SoftHard="Soft" def:ItemOID="IT.VS.VSTESTCD"><CheckValue>PULSE</CheckValue></RangeCheck></def:WhereClauseDef><def:WhereClauseDef OID="WC.VS.VSTESTCD.SYSBP"><RangeCheck Comparator="EQ" SoftHard="Soft" def:ItemOID="IT.VS.VSTESTCD"><CheckValue>SYSBP</CheckValue></RangeCheck></def:WhereClauseDef><def:WhereClauseDef OID="WC.VS.VSTESTCD.WEIGHT"><RangeCheck Comparator="EQ" SoftHard="Soft" def:ItemOID="IT.VS.VSTESTCD"><CheckValue>WEIGHT</CheckValue></RangeCheck></def:WhereClauseDef><def:WhereClauseDef OID="WC.VS.VSTESTCD.HEIGHT.[DM].COUNTRY.CMETRIC" def:CommentOID="COM.SUBJECTDATA-JOIN-DM"><RangeCheck Comparator="EQ" SoftHard="Soft" def:ItemOID="IT.VS.VSTESTCD"><CheckValue>HEIGHT</CheckValue></RangeCheck><RangeCheck Comparator="IN" SoftHard="Soft" def:ItemOID="IT.VS.COUNTRY"><CheckValue>CAN,MEX</CheckValue></RangeCheck></def:WhereClauseDef><def:WhereClauseDef OID="WC.VS.VSTESTCD.HEIGHT.[DM].COUNTRY.CNMETRIC" def:CommentOID="COM.SUBJECTDATA-JOIN-DM"><RangeCheck Comparator="EQ" SoftHard="Soft" def:ItemOID="IT.VS.VSTESTCD"><CheckValue>HEIGHT</CheckValue></RangeCheck><RangeCheck Comparator="EQ" SoftHard="Soft" def:ItemOID="IT.VS.COUNTRY"><CheckValue>USA</CheckValue></RangeCheck></def:WhereClauseDef><def:WhereClauseDef OID="WC.VS.VSTESTCD.WEIGHT.[DM].COUNTRY.CMETRIC" def:CommentOID="COM.SUBJECTDATA-JOIN-DM"><RangeCheck Comparator="EQ" SoftHard="Soft" def:ItemOID="IT.VS.VSTESTCD"><CheckValue>WEIGHT</CheckValue></RangeCheck><RangeCheck Comparator="IN" SoftHard="Soft" def:ItemOID="IT.VS.COUNTRY"><CheckValue>CAN,MEX</CheckValue></RangeCheck></def:WhereClauseDef><def:WhereClauseDef OID="WC.VS.VSTESTCD.WEIGHT.[DM].COUNTRY.CNMETRIC" def:CommentOID="COM.SUBJECTDATA-JOIN-DM"><RangeCheck Comparator="EQ" SoftHard="Soft" def:ItemOID="IT.VS.VSTESTCD"><CheckValue>WEIGHT</CheckValue></RangeCheck><RangeCheck Comparator="EQ" SoftHard="Soft" def:ItemOID="IT.VS.COUNTRY"><CheckValue>USA</CheckValue></RangeCheck></def:WhereClauseDef><ItemGroupDef Domain="AE" IsReferenceData="No" Name="AE" OID="IG.AE" Purpose="Tabulation" Repeating="Yes" SASDatasetName="AE" def:ArchiveLocationID="LF.AE" def:Class="EVENTS" def:Structure="One record per adverse event per subject"><Description><TranslatedText xml:lang="en">Adverse Events</TranslatedText></Description><ItemRef ItemOID="IT.AE.STUDYID" KeySequence="1" Mandatory="Yes" OrderNumber="1" /><ItemRef ItemOID="IT.AE.DOMAIN" Mandatory="Yes" OrderNumber="2" /><ItemRef ItemOID="IT.AE.USUBJID" KeySequence="2" Mandatory="Yes" MethodOID="MT.USUBJID" OrderNumber="3" /><ItemRef ItemOID="IT.AE.AESEQ" Mandatory="Yes" MethodOID="MT.SEQ" OrderNumber="4" /><ItemRef ItemOID="IT.AE.AESPID" Mandatory="No" OrderNumber="5" /><ItemRef ItemOID="IT.AE.AETERM" Mandatory="Yes" OrderNumber="6" /><ItemRef ItemOID="IT.AE.AEMODIFY" Mandatory="No" OrderNumber="7" /><ItemRef ItemOID="IT.AE.AEDECOD" KeySequence="3" Mandatory="Yes" OrderNumber="8" /><ItemRef ItemOID="IT.AE.AEBODSYS" Mandatory="No" OrderNumber="9" /><ItemRef ItemOID="IT.AE.AESEV" Mandatory="Yes" OrderNumber="10" /><ItemRef ItemOID="IT.AE.AESER" Mandatory="Yes" OrderNumber="11" /><ItemRef ItemOID="IT.AE.AEACN" Mandatory="Yes" OrderNumber="12" /><ItemRef ItemOID="IT.AE.AEREL" Mandatory="Yes" OrderNumber="13" /><ItemRef ItemOID="IT.AE.AESTDTC" KeySequence="4" Mandatory="No" OrderNumber="14" /><ItemRef ItemOID="IT.AE.AEENDTC" Mandatory="No" OrderNumber="15" /><ItemRef ItemOID="IT.AE.AESTDY" Mandatory="No" MethodOID="MT.AESTDY" OrderNumber="16" /><ItemRef ItemOID="IT.AE.AEENDY" Mandatory="No" MethodOID="MT.AEENDY" OrderNumber="17" /><ItemRef ItemOID="IT.AE.AEENRF" Mandatory="No" OrderNumber="18" /><def:leaf ID="LF.AE" xlink:href="ae.xpt"><def:title>ae.xpt</def:title></def:leaf></ItemGroupDef><ItemGroupDef Domain="CM" IsReferenceData="No" Name="CM" OID="IG.CM" Purpose="Tabulation" Repeating="Yes" SASDatasetName="CM" def:ArchiveLocationID="LF.CM" def:Class="INTERVENTIONS" def:Structure="One record per recorded medication occurrence or constant-dosing interval per subject"><Description><TranslatedText xml:lang="en">Concomitant Medications</TranslatedText></Description><ItemRef ItemOID="IT.CM.STUDYID" KeySequence="1" Mandatory="Yes" OrderNumber="1" /><ItemRef ItemOID="IT.CM.DOMAIN" Mandatory="Yes" OrderNumber="2" /><ItemRef ItemOID="IT.CM.USUBJID" KeySequence="2" Mandatory="Yes" MethodOID="MT.USUBJID" OrderNumber="3" /><ItemRef ItemOID="IT.CM.CMSEQ" Mandatory="Yes" MethodOID="MT.SEQ" OrderNumber="4" /><ItemRef ItemOID="IT.CM.CMTRT" KeySequence="6" Mandatory="Yes" OrderNumber="5" /><ItemRef ItemOID="IT.CM.CMMODIFY" Mandatory="No" OrderNumber="6" /><ItemRef ItemOID="IT.CM.CMDECOD" Mandatory="No" OrderNumber="7" /><ItemRef ItemOID="IT.CM.CMCAT" KeySequence="5" Mandatory="No" OrderNumber="8" /><ItemRef ItemOID="IT.CM.CMINDC" KeySequence="9" Mandatory="No" OrderNumber="9" /><ItemRef ItemOID="IT.CM.CMCLAS" Mandatory="No" OrderNumber="10" /><ItemRef ItemOID="IT.CM.CMCLASCD" Mandatory="No" OrderNumber="11" /><ItemRef ItemOID="IT.CM.CMDOSTXT" KeySequence="7" Mandatory="No" OrderNumber="12" /><ItemRef ItemOID="IT.CM.CMDOSU" KeySequence="8" Mandatory="No" OrderNumber="13" /><ItemRef ItemOID="IT.CM.CMDOSFRQ" KeySequence="10" Mandatory="No" OrderNumber="14" /><ItemRef ItemOID="IT.CM.CMROUTE" Mandatory="No" OrderNumber="15" /><ItemRef ItemOID="IT.CM.CMSTDTC" KeySequence="3" Mandatory="No" OrderNumber="16" /><ItemRef ItemOID="IT.CM.CMENDTC" KeySequence="4" Mandatory="No" OrderNumber="17" /><ItemRef ItemOID="IT.CM.CMSTDY" Mandatory="No" MethodOID="MT.CMSTDY" OrderNumber="18" /><ItemRef ItemOID="IT.CM.CMENDY" Mandatory="No" MethodOID="MT.CMENDY" OrderNumber="19" /><ItemRef ItemOID="IT.CM.CMENRF" Mandatory="No" OrderNumber="20" /><def:leaf ID="LF.CM" xlink:href="cm.xpt"><def:title>cm.xpt</def:title></def:leaf></ItemGroupDef><ItemGroupDef Domain="DA" IsReferenceData="No" Name="DA" OID="IG.DA" Purpose="Tabulation" Repeating="Yes" SASDatasetName="DA" def:ArchiveLocationID="LF.DA" def:Class="FINDINGS" def:Structure="One record per drug accountability finding per subject"><Description><TranslatedText xml:lang="en">Drug Accountability</TranslatedText></Description><ItemRef ItemOID="IT.DA.STUDYID" KeySequence="1" Mandatory="Yes" OrderNumber="1" /><ItemRef ItemOID="IT.DA.DOMAIN" Mandatory="Yes" OrderNumber="2" /><ItemRef ItemOID="IT.DA.USUBJID" KeySequence="2" Mandatory="Yes" MethodOID="MT.USUBJID" OrderNumber="3" /><ItemRef ItemOID="IT.DA.DASEQ" Mandatory="Yes" MethodOID="MT.SEQ" OrderNumber="4" /><ItemRef ItemOID="IT.DA.DATESTCD" KeySequence="3" Mandatory="Yes" OrderNumber="5" /><ItemRef ItemOID="IT.DA.DATEST" Mandatory="Yes" OrderNumber="6" /><ItemRef ItemOID="IT.DA.DAORRES" Mandatory="No" OrderNumber="7" /><ItemRef ItemOID="IT.DA.DAORRESU" Mandatory="No" OrderNumber="8" /><ItemRef ItemOID="IT.DA.DASTRESC" Mandatory="No" MethodOID="MT.DASTRESC" OrderNumber="9" /><ItemRef ItemOID="IT.DA.DASTRESN" Mandatory="No" MethodOID="MT.DASTRESN" OrderNumber="10" /><ItemRef ItemOID="IT.DA.DASTRESU" Mandatory="No" MethodOID="MT.DASTRESU" OrderNumber="11" /><ItemRef ItemOID="IT.DA.VISITNUM" Mandatory="No" MethodOID="MT.DA.VISITNUM" OrderNumber="12" /><ItemRef ItemOID="IT.DA.VISIT" Mandatory="No" OrderNumber="13" /><ItemRef ItemOID="IT.DA.VISITDY" Mandatory="No" OrderNumber="14" /><ItemRef ItemOID="IT.DA.DADTC" KeySequence="4" Mandatory="No" OrderNumber="15" /><ItemRef ItemOID="IT.DA.DADY" Mandatory="No" MethodOID="MT.DADY" OrderNumber="16" /><def:leaf ID="LF.DA" xlink:href="da.xpt"><def:title>da.xpt</def:title></def:leaf></ItemGroupDef><ItemGroupDef Domain="DM" IsReferenceData="No" Name="DM" OID="IG.DM" Purpose="Tabulation" Repeating="No" SASDatasetName="DM" def:ArchiveLocationID="LF.DM" def:Class="SPECIAL PURPOSE" def:CommentOID="COM.DOMAIN.DM" def:Structure="One record per subject"><Description><TranslatedText xml:lang="en">Demographics</TranslatedText></Description><ItemRef ItemOID="IT.DM.STUDYID" KeySequence="1" Mandatory="Yes" OrderNumber="1" /><ItemRef ItemOID="IT.DM.DOMAIN" Mandatory="Yes" OrderNumber="2" /><ItemRef ItemOID="IT.DM.USUBJID" KeySequence="2" Mandatory="Yes" MethodOID="MT.USUBJID" OrderNumber="3" /><ItemRef ItemOID="IT.DM.SUBJID" Mandatory="Yes" OrderNumber="4" /><ItemRef ItemOID="IT.DM.RFSTDTC" Mandatory="No" MethodOID="MT.RFSTDTC" OrderNumber="5" /><ItemRef ItemOID="IT.DM.RFENDTC" Mandatory="No" MethodOID="MT.RFENDTC" OrderNumber="6" /><ItemRef ItemOID="IT.DM.SITEID" Mandatory="Yes" OrderNumber="7" /><ItemRef ItemOID="IT.DM.BRTHDTC" Mandatory="No" OrderNumber="8" /><ItemRef ItemOID="IT.DM.AGE" Mandatory="Yes" MethodOID="MT.AGE" OrderNumber="9" /><ItemRef ItemOID="IT.DM.AGEU" Mandatory="No" OrderNumber="10" /><ItemRef ItemOID="IT.DM.SEX" Mandatory="Yes" OrderNumber="11" /><ItemRef ItemOID="IT.DM.RACE" Mandatory="No" OrderNumber="12" /><ItemRef ItemOID="IT.DM.ETHNIC" Mandatory="Yes" OrderNumber="13" /><ItemRef ItemOID="IT.DM.ARMCD" Mandatory="Yes" OrderNumber="14" /><ItemRef ItemOID="IT.DM.ARM" Mandatory="Yes" OrderNumber="15" /><ItemRef ItemOID="IT.DM.COUNTRY" Mandatory="Yes" OrderNumber="16" /><def:leaf ID="LF.DM" xlink:href="dm.xpt"><def:title>dm.xpt</def:title></def:leaf></ItemGroupDef><ItemGroupDef Domain="DS" IsReferenceData="No" Name="DS" OID="IG.DS" Purpose="Tabulation" Repeating="Yes" SASDatasetName="DS" def:ArchiveLocationID="LF.DS" def:Class="EVENTS" def:Structure="One record per disposition status or protocol milestone per subject"><Description><TranslatedText xml:lang="en">Disposition</TranslatedText></Description><ItemRef ItemOID="IT.DS.STUDYID" KeySequence="1" Mandatory="Yes" OrderNumber="1" /><ItemRef ItemOID="IT.DS.DOMAIN" Mandatory="Yes" OrderNumber="2" /><ItemRef ItemOID="IT.DS.USUBJID" KeySequence="2" Mandatory="Yes" MethodOID="MT.USUBJID" OrderNumber="3" /><ItemRef ItemOID="IT.DS.DSSEQ" Mandatory="Yes" MethodOID="MT.SEQ" OrderNumber="4" /><ItemRef ItemOID="IT.DS.DSTERM" Mandatory="Yes" OrderNumber="5" /><ItemRef ItemOID="IT.DS.DSDECOD" KeySequence="6" Mandatory="Yes" OrderNumber="6" /><ItemRef ItemOID="IT.DS.DSCAT" KeySequence="5" Mandatory="No" OrderNumber="7" /><ItemRef ItemOID="IT.DS.EPOCH" Mandatory="No" OrderNumber="8" /><ItemRef ItemOID="IT.DS.DSSTDTC" KeySequence="4" Mandatory="No" OrderNumber="9" /><ItemRef ItemOID="IT.DS.DSSTDY" KeySequence="3" Mandatory="No" MethodOID="MT.DSSTDY" OrderNumber="10" /><def:leaf ID="LF.DS" xlink:href="ds.xpt"><def:title>ds.xpt</def:title></def:leaf></ItemGroupDef><ItemGroupDef Domain="EG" IsReferenceData="No" Name="EG" OID="IG.EG" Purpose="Tabulation" Repeating="Yes" SASDatasetName="EG" def:ArchiveLocationID="LF.EG" def:Class="FINDINGS" def:Structure="One record per ECG observation per visit per subject"><Description><TranslatedText xml:lang="en">ECG Test Results</TranslatedText></Description><ItemRef ItemOID="IT.EG.STUDYID" KeySequence="1" Mandatory="Yes" OrderNumber="1" /><ItemRef ItemOID="IT.EG.DOMAIN" Mandatory="Yes" OrderNumber="2" /><ItemRef ItemOID="IT.EG.USUBJID" KeySequence="2" Mandatory="Yes" MethodOID="MT.USUBJID" OrderNumber="3" /><ItemRef ItemOID="IT.EG.EGSEQ" Mandatory="Yes" MethodOID="MT.SEQ" OrderNumber="4" /><ItemRef ItemOID="IT.EG.EGSPID" Mandatory="No" OrderNumber="5" /><ItemRef ItemOID="IT.EG.EGTESTCD" KeySequence="3" Mandatory="Yes" OrderNumber="6" /><ItemRef ItemOID="IT.EG.EGTEST" Mandatory="Yes" OrderNumber="7" /><ItemRef ItemOID="IT.EG.EGPOS" Mandatory="No" OrderNumber="8" /><ItemRef ItemOID="IT.EG.EGORRES" Mandatory="No" OrderNumber="9" /><ItemRef ItemOID="IT.EG.EGORRESU" Mandatory="No" OrderNumber="10" /><ItemRef ItemOID="IT.EG.EGSTRESC" Mandatory="No" MethodOID="MT.EGSTRESC" OrderNumber="11" /><ItemRef ItemOID="IT.EG.EGSTRESN" Mandatory="No" MethodOID="MT.EGSTRESN" OrderNumber="12" /><ItemRef ItemOID="IT.EG.EGSTRESU" Mandatory="No" OrderNumber="13" /><ItemRef ItemOID="IT.EG.EGBLFL" Mandatory="No" MethodOID="MT.EGBLFL" OrderNumber="14" /><ItemRef ItemOID="IT.EG.EGDRVFL" Mandatory="No" MethodOID="MT.EGDRVFL" OrderNumber="15" /><ItemRef ItemOID="IT.EG.EGEVAL" Mandatory="No" OrderNumber="16" /><ItemRef ItemOID="IT.EG.VISITNUM" KeySequence="5" Mandatory="No" OrderNumber="17" /><ItemRef ItemOID="IT.EG.VISIT" Mandatory="No" OrderNumber="18" /><ItemRef ItemOID="IT.EG.VISITDY" Mandatory="No" OrderNumber="19" /><ItemRef ItemOID="IT.EG.EGDTC" KeySequence="4" Mandatory="No" OrderNumber="20" /><ItemRef ItemOID="IT.EG.EGDY" Mandatory="No" MethodOID="MT.EGDY" OrderNumber="21" /><def:leaf ID="LF.EG" xlink:href="eg.xpt"><def:title>eg.xpt</def:title></def:leaf></ItemGroupDef><ItemGroupDef Domain="EX" IsReferenceData="No" Name="EX" OID="IG.EX" Purpose="Tabulation" Repeating="Yes" SASDatasetName="EX" def:ArchiveLocationID="LF.EX" def:Class="INTERVENTIONS" def:Structure="One record per constant dosing interval per subject"><Description><TranslatedText xml:lang="en">Exposure</TranslatedText></Description><ItemRef ItemOID="IT.EX.STUDYID" KeySequence="1" Mandatory="Yes" OrderNumber="1" /><ItemRef ItemOID="IT.EX.DOMAIN" Mandatory="Yes" OrderNumber="2" /><ItemRef ItemOID="IT.EX.USUBJID" KeySequence="2" Mandatory="Yes" MethodOID="MT.USUBJID" OrderNumber="3" /><ItemRef ItemOID="IT.EX.EXSEQ" Mandatory="Yes" MethodOID="MT.SEQ" OrderNumber="4" /><ItemRef ItemOID="IT.EX.EXTRT" KeySequence="5" Mandatory="Yes" MethodOID="MT.EXTRT" OrderNumber="5" /><ItemRef ItemOID="IT.EX.EXDOSE" KeySequence="6" Mandatory="No" MethodOID="MT.EXDOSE" OrderNumber="6" /><ItemRef ItemOID="IT.EX.EXDOSU" Mandatory="No" MethodOID="MT.EXDOSU" OrderNumber="7" /><ItemRef ItemOID="IT.EX.EXDOSFRM" Mandatory="No" OrderNumber="8" /><ItemRef ItemOID="IT.EX.EXSTDTC" KeySequence="3" Mandatory="No" OrderNumber="9" /><ItemRef ItemOID="IT.EX.EXENDTC" KeySequence="4" Mandatory="No" OrderNumber="10" /><ItemRef ItemOID="IT.EX.EXSTDY" Mandatory="No" MethodOID="MT.EXSTDY" OrderNumber="11" /><ItemRef ItemOID="IT.EX.EXENDY" Mandatory="No" MethodOID="MT.EXENDY" OrderNumber="12" /><def:leaf ID="LF.EX" xlink:href="ex.xpt"><def:title>ex.xpt</def:title></def:leaf></ItemGroupDef><ItemGroupDef Domain="IE" IsReferenceData="No" Name="IE" OID="IG.IE" Purpose="Tabulation" Repeating="Yes" SASDatasetName="IE" def:ArchiveLocationID="LF.IE" def:Class="FINDINGS" def:Structure="One record per inclusion/exclusion criterion not met per subject"><Description><TranslatedText xml:lang="en">Inclusion/Exclusion Criteria Not Met</TranslatedText></Description><ItemRef ItemOID="IT.IE.STUDYID" KeySequence="1" Mandatory="Yes" OrderNumber="1" /><ItemRef ItemOID="IT.IE.DOMAIN" Mandatory="Yes" OrderNumber="2" /><ItemRef ItemOID="IT.IE.USUBJID" KeySequence="2" Mandatory="Yes" MethodOID="MT.USUBJID" OrderNumber="3" /><ItemRef ItemOID="IT.IE.IESEQ" Mandatory="Yes" MethodOID="MT.SEQ" OrderNumber="4" /><ItemRef ItemOID="IT.IE.IETESTCD" KeySequence="3" Mandatory="Yes" OrderNumber="5" /><ItemRef ItemOID="IT.IE.IETEST" Mandatory="Yes" OrderNumber="6" /><ItemRef ItemOID="IT.IE.IECAT" Mandatory="Yes" OrderNumber="7" /><ItemRef ItemOID="IT.IE.IEORRES" Mandatory="Yes" OrderNumber="8" /><ItemRef ItemOID="IT.IE.IESTRESC" Mandatory="Yes" MethodOID="MT.IESTRESC" OrderNumber="9" /><ItemRef ItemOID="IT.IE.VISITNUM" Mandatory="No" OrderNumber="10" /><ItemRef ItemOID="IT.IE.VISIT" Mandatory="No" OrderNumber="11" /><ItemRef ItemOID="IT.IE.IEDTC" Mandatory="No" OrderNumber="12" /><def:leaf ID="LF.IE" xlink:href="ie.xpt"><def:title>ie.xpt</def:title></def:leaf></ItemGroupDef><ItemGroupDef Domain="LB" IsReferenceData="No" Name="LB" OID="IG.LB" Purpose="Tabulation" Repeating="Yes" SASDatasetName="LB" def:ArchiveLocationID="LF.LB" def:Class="FINDINGS" def:Structure="One record per analyte per visit per subject"><Description><TranslatedText xml:lang="en">Laboratory Tests Results</TranslatedText></Description><ItemRef ItemOID="IT.LB.STUDYID" KeySequence="1" Mandatory="Yes" OrderNumber="1" /><ItemRef ItemOID="IT.LB.DOMAIN" Mandatory="Yes" OrderNumber="2" /><ItemRef ItemOID="IT.LB.USUBJID" KeySequence="2" Mandatory="Yes" MethodOID="MT.USUBJID" OrderNumber="3" /><ItemRef ItemOID="IT.LB.LBSEQ" Mandatory="Yes" MethodOID="MT.SEQ" OrderNumber="4" /><ItemRef ItemOID="IT.LB.LBREFID" Mandatory="No" OrderNumber="5" /><ItemRef ItemOID="IT.LB.LBTESTCD" KeySequence="5" Mandatory="Yes" OrderNumber="6" /><ItemRef ItemOID="IT.LB.LBTEST" Mandatory="Yes" OrderNumber="7" /><ItemRef ItemOID="IT.LB.LBCAT" KeySequence="3" Mandatory="No" OrderNumber="8" /><ItemRef ItemOID="IT.LB.LBORRES" Mandatory="No" OrderNumber="9" /><ItemRef ItemOID="IT.LB.LBORRESU" Mandatory="No" OrderNumber="10" /><ItemRef ItemOID="IT.LB.LBORNRLO" Mandatory="No" OrderNumber="11" /><ItemRef ItemOID="IT.LB.LBORNRHI" Mandatory="No" OrderNumber="12" /><ItemRef ItemOID="IT.LB.LBSTRESC" Mandatory="No" OrderNumber="13" /><ItemRef ItemOID="IT.LB.LBSTRESN" Mandatory="No" OrderNumber="14" /><ItemRef ItemOID="IT.LB.LBSTRESU" Mandatory="No" OrderNumber="15" /><ItemRef ItemOID="IT.LB.LBSTNRLO" Mandatory="No" OrderNumber="16" /><ItemRef ItemOID="IT.LB.LBSTNRHI" Mandatory="No" OrderNumber="17" /><ItemRef ItemOID="IT.LB.LBSTNRC" Mandatory="No" OrderNumber="18" /><ItemRef ItemOID="IT.LB.LBNRIND" Mandatory="No" MethodOID="MT.LBNRIND" OrderNumber="19" /><ItemRef ItemOID="IT.LB.LBSPEC" Mandatory="No" OrderNumber="20" /><ItemRef ItemOID="IT.LB.LBMETHOD" KeySequence="4" Mandatory="No" OrderNumber="21" /><ItemRef ItemOID="IT.LB.LBBLFL" Mandatory="No" MethodOID="MT.LBBLFL" OrderNumber="22" /><ItemRef ItemOID="IT.LB.LBFAST" Mandatory="No" OrderNumber="23" /><ItemRef ItemOID="IT.LB.VISITNUM" KeySequence="7" Mandatory="No" OrderNumber="24" /><ItemRef ItemOID="IT.LB.VISIT" Mandatory="No" OrderNumber="25" /><ItemRef ItemOID="IT.LB.VISITDY" Mandatory="No" OrderNumber="26" /><ItemRef ItemOID="IT.LB.LBDTC" KeySequence="6" Mandatory="No" OrderNumber="27" /><ItemRef ItemOID="IT.LB.LBDY" Mandatory="No" MethodOID="MT.LBDY" OrderNumber="28" /><def:leaf ID="LF.LB" xlink:href="lb.xpt"><def:title>lb.xpt</def:title></def:leaf></ItemGroupDef><ItemGroupDef Domain="MH" IsReferenceData="No" Name="MH" OID="IG.MH" Purpose="Tabulation" Repeating="Yes" SASDatasetName="MH" def:ArchiveLocationID="LF.MH" def:Class="EVENTS" def:Structure="One record per medical history event per subject"><Description><TranslatedText xml:lang="en">Medical History</TranslatedText></Description><ItemRef ItemOID="IT.MH.STUDYID" KeySequence="1" Mandatory="Yes" OrderNumber="1" /><ItemRef ItemOID="IT.MH.DOMAIN" Mandatory="Yes" OrderNumber="2" /><ItemRef ItemOID="IT.MH.USUBJID" KeySequence="2" Mandatory="Yes" MethodOID="MT.USUBJID" OrderNumber="3" /><ItemRef ItemOID="IT.MH.MHSEQ" Mandatory="Yes" MethodOID="MT.SEQ" OrderNumber="4" /><ItemRef ItemOID="IT.MH.MHTERM" KeySequence="4" Mandatory="Yes" OrderNumber="5" /><ItemRef ItemOID="IT.MH.MHCAT" KeySequence="3" Mandatory="No" OrderNumber="6" /><ItemRef ItemOID="IT.MH.MHPRESP" Mandatory="No" OrderNumber="7" /><ItemRef ItemOID="IT.MH.MHOCCUR" Mandatory="No" OrderNumber="8" /><ItemRef ItemOID="IT.MH.MHBODSYS" Mandatory="No" OrderNumber="9" /><ItemRef ItemOID="IT.MH.MHDTC" KeySequence="5" Mandatory="No" OrderNumber="10" /><ItemRef ItemOID="IT.MH.MHSTDTC" KeySequence="6" Mandatory="No" OrderNumber="11" /><ItemRef ItemOID="IT.MH.MHENRF" Mandatory="No" OrderNumber="12" /><def:leaf ID="LF.MH" xlink:href="mh.xpt"><def:title>mh.xpt</def:title></def:leaf></ItemGroupDef><ItemGroupDef Domain="PE" IsReferenceData="No" Name="PE" OID="IG.PE" Purpose="Tabulation" Repeating="Yes" SASDatasetName="PE" def:ArchiveLocationID="LF.PE" def:Class="FINDINGS" def:Structure="One record per body system or abnormality per visit per subject"><Description><TranslatedText xml:lang="en">Physical Examination</TranslatedText></Description><ItemRef ItemOID="IT.PE.STUDYID" KeySequence="1" Mandatory="Yes" OrderNumber="1" /><ItemRef ItemOID="IT.PE.DOMAIN" Mandatory="Yes" OrderNumber="2" /><ItemRef ItemOID="IT.PE.USUBJID" KeySequence="2" Mandatory="Yes" MethodOID="MT.USUBJID" OrderNumber="3" /><ItemRef ItemOID="IT.PE.PESEQ" Mandatory="Yes" MethodOID="MT.SEQ" OrderNumber="4" /><ItemRef ItemOID="IT.PE.PETESTCD" KeySequence="3" Mandatory="Yes" OrderNumber="5" /><ItemRef ItemOID="IT.PE.PETEST" Mandatory="Yes" OrderNumber="6" /><ItemRef ItemOID="IT.PE.PEORRES" Mandatory="No" OrderNumber="7" /><ItemRef ItemOID="IT.PE.PESTRESC" Mandatory="No" MethodOID="MT.PESTRESC" OrderNumber="8" /><ItemRef ItemOID="IT.PE.VISITNUM" KeySequence="5" Mandatory="No" OrderNumber="9" /><ItemRef ItemOID="IT.PE.VISIT" Mandatory="No" OrderNumber="10" /><ItemRef ItemOID="IT.PE.VISITDY" Mandatory="No" OrderNumber="11" /><ItemRef ItemOID="IT.PE.PEDTC" KeySequence="4" Mandatory="No" OrderNumber="12" /><ItemRef ItemOID="IT.PE.PEDY" Mandatory="No" MethodOID="MT.PEDY" OrderNumber="13" /><def:leaf ID="LF.PE" xlink:href="pe.xpt"><def:title>pe.xpt</def:title></def:leaf></ItemGroupDef><ItemGroupDef Domain="QSCG" IsReferenceData="No" Name="QSCG" OID="IG.QSCG" Purpose="Tabulation" Repeating="Yes" SASDatasetName="QSCG" def:ArchiveLocationID="LF.QSCG" def:Class="FINDINGS" def:CommentOID="COM.DOMAIN.QS" def:Structure="One record per questionnaire per question per visit per subject"><Description><TranslatedText xml:lang="en">Questionnaire-QSCG</TranslatedText></Description><ItemRef ItemOID="IT.QSCG.STUDYID" KeySequence="1" Mandatory="Yes" OrderNumber="1" /><ItemRef ItemOID="IT.QSCG.DOMAIN" Mandatory="Yes" OrderNumber="2" /><ItemRef ItemOID="IT.QSCG.USUBJID" KeySequence="2" Mandatory="Yes" MethodOID="MT.USUBJID" OrderNumber="3" /><ItemRef ItemOID="IT.QSCG.QSSEQ" Mandatory="Yes" MethodOID="MT.SEQ" OrderNumber="4" /><ItemRef ItemOID="IT.QSCG.QSTESTCD" KeySequence="4" Mandatory="Yes" OrderNumber="5" /><ItemRef ItemOID="IT.QSCG.QSTEST" Mandatory="Yes" OrderNumber="6" /><ItemRef ItemOID="IT.QSCG.QSCAT" KeySequence="3" Mandatory="Yes" OrderNumber="7" /><ItemRef ItemOID="IT.QSCG.QSORRES" Mandatory="No" OrderNumber="9" /><ItemRef ItemOID="IT.QSCG.QSSTRESC" Mandatory="No" MethodOID="MT.QSSTRESC" OrderNumber="10" /><ItemRef ItemOID="IT.QSCG.QSSTRESN" Mandatory="No" MethodOID="MT.QSSTRESN" OrderNumber="11" /><ItemRef ItemOID="IT.QSCG.VISITNUM" KeySequence="6" Mandatory="No" OrderNumber="13" /><ItemRef ItemOID="IT.QSCG.VISIT" Mandatory="No" OrderNumber="14" /><ItemRef ItemOID="IT.QSCG.VISITDY" Mandatory="No" OrderNumber="15" /><ItemRef ItemOID="IT.QSCG.QSDTC" KeySequence="5" Mandatory="No" OrderNumber="16" /><ItemRef ItemOID="IT.QSCG.QSDY" Mandatory="No" MethodOID="MT.QSDY" OrderNumber="17" /><def:leaf ID="LF.QSCG" xlink:href="qscg.xpt"><def:title>qscg.xpt</def:title></def:leaf></ItemGroupDef><ItemGroupDef Domain="QSCS" IsReferenceData="No" Name="QSCS" OID="IG.QSCS" Purpose="Tabulation" Repeating="Yes" SASDatasetName="QSCS" def:ArchiveLocationID="LF.QSCS" def:Class="FINDINGS" def:CommentOID="COM.DOMAIN.QS" def:Structure="One record per questionnaire per question per visit per subject"><Description><TranslatedText xml:lang="en">Questionnaire-QSCS</TranslatedText></Description><ItemRef ItemOID="IT.QSCS.STUDYID" KeySequence="1" Mandatory="Yes" OrderNumber="1" /><ItemRef ItemOID="IT.QSCS.DOMAIN" Mandatory="Yes" OrderNumber="2" /><ItemRef ItemOID="IT.QSCS.USUBJID" KeySequence="2" Mandatory="Yes" MethodOID="MT.USUBJID" OrderNumber="3" /><ItemRef ItemOID="IT.QSCS.QSSEQ" Mandatory="Yes" MethodOID="MT.SEQ" OrderNumber="4" /><ItemRef ItemOID="IT.QSCS.QSTESTCD" KeySequence="4" Mandatory="Yes" OrderNumber="5" /><ItemRef ItemOID="IT.QSCS.QSTEST" Mandatory="Yes" OrderNumber="6" /><ItemRef ItemOID="IT.QSCS.QSCAT" KeySequence="3" Mandatory="Yes" OrderNumber="7" /><ItemRef ItemOID="IT.QSCS.QSSCAT" Mandatory="No" OrderNumber="8" /><ItemRef ItemOID="IT.QSCS.QSORRES" Mandatory="No" OrderNumber="9" /><ItemRef ItemOID="IT.QSCS.QSSTRESC" Mandatory="No" MethodOID="MT.QSSTRESC" OrderNumber="10" /><ItemRef ItemOID="IT.QSCS.QSSTRESN" Mandatory="No" MethodOID="MT.QSSTRESN" OrderNumber="11" /><ItemRef ItemOID="IT.QSCS.QSBLFL" Mandatory="No" MethodOID="MT.QSBLFL" OrderNumber="12" /><ItemRef ItemOID="IT.QSCS.VISITNUM" KeySequence="6" Mandatory="No" OrderNumber="13" /><ItemRef ItemOID="IT.QSCS.VISIT" Mandatory="No" OrderNumber="14" /><ItemRef ItemOID="IT.QSCS.VISITDY" Mandatory="No" OrderNumber="15" /><ItemRef ItemOID="IT.QSCS.QSDTC" KeySequence="5" Mandatory="No" OrderNumber="16" /><ItemRef ItemOID="IT.QSCS.QSDY" Mandatory="No" MethodOID="MT.QSDY" OrderNumber="17" /><ItemRef ItemOID="IT.QSCS.QSEVLINT" Mandatory="No" OrderNumber="18" /><def:leaf ID="LF.QSCS" xlink:href="qscs.xpt"><def:title>qscs.xpt</def:title></def:leaf></ItemGroupDef><ItemGroupDef Domain="QSMM" IsReferenceData="No" Name="QSMM" OID="IG.QSMM" Purpose="Tabulation" Repeating="Yes" SASDatasetName="QSMM" def:ArchiveLocationID="LF.QSMM" def:Class="FINDINGS" def:CommentOID="COM.DOMAIN.QS" def:Structure="One record per questionnaire per question per visit per subject"><Description><TranslatedText xml:lang="en">Questionnaire-QSMM</TranslatedText></Description><ItemRef ItemOID="IT.QSMM.STUDYID" KeySequence="1" Mandatory="Yes" OrderNumber="1" /><ItemRef ItemOID="IT.QSMM.DOMAIN" Mandatory="Yes" OrderNumber="2" /><ItemRef ItemOID="IT.QSMM.USUBJID" KeySequence="2" Mandatory="Yes" MethodOID="MT.USUBJID" OrderNumber="3" /><ItemRef ItemOID="IT.QSMM.QSSEQ" Mandatory="Yes" MethodOID="MT.SEQ" OrderNumber="4" /><ItemRef ItemOID="IT.QSMM.QSTESTCD" KeySequence="4" Mandatory="Yes" OrderNumber="5" /><ItemRef ItemOID="IT.QSMM.QSTEST" Mandatory="Yes" OrderNumber="6" /><ItemRef ItemOID="IT.QSMM.QSCAT" KeySequence="3" Mandatory="Yes" OrderNumber="7" /><ItemRef ItemOID="IT.QSMM.QSORRES" Mandatory="No" OrderNumber="9" /><ItemRef ItemOID="IT.QSMM.QSSTRESC" Mandatory="No" MethodOID="MT.QSSTRESC" OrderNumber="10" /><ItemRef ItemOID="IT.QSMM.QSSTRESN" Mandatory="No" MethodOID="MT.QSSTRESN" OrderNumber="11" /><ItemRef ItemOID="IT.QSMM.QSBLFL" Mandatory="No" MethodOID="MT.QSBLFL" OrderNumber="12" /><ItemRef ItemOID="IT.QSMM.VISITNUM" KeySequence="6" Mandatory="No" OrderNumber="13" /><ItemRef ItemOID="IT.QSMM.VISIT" Mandatory="No" OrderNumber="14" /><ItemRef ItemOID="IT.QSMM.VISITDY" Mandatory="No" OrderNumber="15" /><ItemRef ItemOID="IT.QSMM.QSDTC" KeySequence="5" Mandatory="No" OrderNumber="16" /><ItemRef ItemOID="IT.QSMM.QSDY" Mandatory="No" MethodOID="MT.QSDY" OrderNumber="17" /><def:leaf ID="LF.QSMM" xlink:href="qsmm.xpt"><def:title>qsmm.xpt</def:title></def:leaf></ItemGroupDef><ItemGroupDef Domain="RELREC" IsReferenceData="No" Name="RELREC" OID="IG.RELREC" Purpose="Tabulation" Repeating="Yes" SASDatasetName="RELREC" def:ArchiveLocationID="LF.RELREC" def:Class="RELATIONSHIP" def:Structure="One record per related record, group of records or dataset"><Description><TranslatedText xml:lang="en">Related Records</TranslatedText></Description><ItemRef ItemOID="IT.RELREC.STUDYID" KeySequence="1" Mandatory="Yes" OrderNumber="1" /><ItemRef ItemOID="IT.RELREC.RDOMAIN" KeySequence="2" Mandatory="Yes" MethodOID="MT.RDOMAIN" OrderNumber="2" /><ItemRef ItemOID="IT.RELREC.USUBJID" KeySequence="3" Mandatory="No" MethodOID="MT.USUBJID" OrderNumber="3" /><ItemRef ItemOID="IT.RELREC.IDVAR" KeySequence="4" Mandatory="Yes" OrderNumber="4" /><ItemRef ItemOID="IT.RELREC.IDVARVAL" KeySequence="5" Mandatory="No" OrderNumber="5" /><ItemRef ItemOID="IT.RELREC.RELTYPE" Mandatory="No" OrderNumber="6" /><ItemRef ItemOID="IT.RELREC.RELID" KeySequence="6" Mandatory="Yes" MethodOID="MT.RELID" OrderNumber="7" /><def:leaf ID="LF.RELREC" xlink:href="relrec.xpt"><def:title>relrec.xpt</def:title></def:leaf></ItemGroupDef><ItemGroupDef Domain="SC" IsReferenceData="No" Name="SC" OID="IG.SC" Purpose="Tabulation" Repeating="No" SASDatasetName="SC" def:ArchiveLocationID="LF.SC" def:Class="FINDINGS" def:Structure="One record per characteristic per subject"><Description><TranslatedText xml:lang="en">Subject Characteristics</TranslatedText></Description><ItemRef ItemOID="IT.SC.STUDYID" KeySequence="1" Mandatory="Yes" OrderNumber="1" /><ItemRef ItemOID="IT.SC.DOMAIN" Mandatory="Yes" OrderNumber="2" /><ItemRef ItemOID="IT.SC.USUBJID" KeySequence="2" Mandatory="Yes" MethodOID="MT.USUBJID" OrderNumber="3" /><ItemRef ItemOID="IT.SC.SCSEQ" Mandatory="Yes" MethodOID="MT.SEQ" OrderNumber="4" /><ItemRef ItemOID="IT.SC.SCTESTCD" KeySequence="3" Mandatory="Yes" OrderNumber="5" /><ItemRef ItemOID="IT.SC.SCTEST" Mandatory="Yes" OrderNumber="6" /><ItemRef ItemOID="IT.SC.SCORRES" Mandatory="No" OrderNumber="7" /><ItemRef ItemOID="IT.SC.SCSTRESC" Mandatory="No" MethodOID="MT.SCSTRESC" OrderNumber="8" /><ItemRef ItemOID="IT.SC.SCDTC" Mandatory="No" OrderNumber="9" /><ItemRef ItemOID="IT.SC.SCDY" Mandatory="No" MethodOID="MT.SCDY" OrderNumber="10" /><def:leaf ID="LF.SC" xlink:href="sc.xpt"><def:title>sc.xpt</def:title></def:leaf></ItemGroupDef><ItemGroupDef Domain="SE" IsReferenceData="No" Name="SE" OID="IG.SE" Purpose="Tabulation" Repeating="Yes" SASDatasetName="SE" def:ArchiveLocationID="LF.SE" def:Class="SPECIAL PURPOSE" def:Structure="One record per actual Element per subject"><Description><TranslatedText xml:lang="en">Subject Elements</TranslatedText></Description><ItemRef ItemOID="IT.SE.STUDYID" KeySequence="1" Mandatory="Yes" OrderNumber="1" /><ItemRef ItemOID="IT.SE.DOMAIN" Mandatory="Yes" OrderNumber="2" /><ItemRef ItemOID="IT.SE.USUBJID" KeySequence="2" Mandatory="Yes" MethodOID="MT.USUBJID" OrderNumber="3" /><ItemRef ItemOID="IT.SE.SESEQ" Mandatory="Yes" MethodOID="MT.SEQ" OrderNumber="4" /><ItemRef ItemOID="IT.SE.ETCD" KeySequence="6" Mandatory="Yes" OrderNumber="5" /><ItemRef ItemOID="IT.SE.ELEMENT" Mandatory="No" OrderNumber="6" /><ItemRef ItemOID="IT.SE.SESTDTC" KeySequence="3" Mandatory="Yes" MethodOID="MT.SESTDTC" OrderNumber="7" /><ItemRef ItemOID="IT.SE.SEENDTC" KeySequence="4" Mandatory="No" MethodOID="MT.SEENDTC" OrderNumber="8" /><ItemRef ItemOID="IT.SE.TAETORD" KeySequence="5" Mandatory="No" OrderNumber="9" /><def:leaf ID="LF.SE" xlink:href="se.xpt"><def:title>se.xpt</def:title></def:leaf></ItemGroupDef><ItemGroupDef Domain="SUPPAE" IsReferenceData="No" Name="SUPPAE" OID="IG.SUPPAE" Purpose="Tabulation" Repeating="Yes" SASDatasetName="SUPPAE" def:ArchiveLocationID="LF.SUPPAE" def:Class="RELATIONSHIP" def:Structure="One record per IDVAR, IDVARVAL, and QNAM value per subject"><Description><TranslatedText xml:lang="en">Supplemental Qualifiers for AE</TranslatedText></Description><ItemRef ItemOID="IT.SUPPAE.STUDYID" KeySequence="1" Mandatory="Yes" OrderNumber="1" /><ItemRef ItemOID="IT.SUPPAE.RDOMAIN" KeySequence="2" Mandatory="Yes" MethodOID="MT.RDOMAIN" OrderNumber="2" /><ItemRef ItemOID="IT.SUPPAE.USUBJID" KeySequence="3" Mandatory="Yes" MethodOID="MT.USUBJID" OrderNumber="3" /><ItemRef ItemOID="IT.SUPPAE.IDVAR" KeySequence="4" Mandatory="No" OrderNumber="4" /><ItemRef ItemOID="IT.SUPPAE.IDVARVAL" KeySequence="5" Mandatory="No" OrderNumber="5" /><ItemRef ItemOID="IT.SUPPAE.QNAM" KeySequence="6" Mandatory="Yes" OrderNumber="6" /><ItemRef ItemOID="IT.SUPPAE.QLABEL" Mandatory="Yes" OrderNumber="7" /><ItemRef ItemOID="IT.SUPPAE.QVAL" Mandatory="Yes" OrderNumber="8" /><ItemRef ItemOID="IT.SUPPAE.QORIG" Mandatory="Yes" OrderNumber="9" /><ItemRef ItemOID="IT.SUPPAE.QEVAL" Mandatory="No" OrderNumber="10" /><def:leaf ID="LF.SUPPAE" xlink:href="suppae.xpt"><def:title>suppae.xpt</def:title></def:leaf></ItemGroupDef><ItemGroupDef Domain="SUPPCM" IsReferenceData="No" Name="SUPPCM" OID="IG.SUPPCM" Purpose="Tabulation" Repeating="Yes" SASDatasetName="SUPPCM" def:ArchiveLocationID="LF.SUPPCM" def:Class="RELATIONSHIP" def:Structure="One record per IDVAR, IDVARVAL, and QNAM value per subject"><Description><TranslatedText xml:lang="en">Supplemental Qualifiers for CM</TranslatedText></Description><ItemRef ItemOID="IT.SUPPCM.STUDYID" KeySequence="1" Mandatory="Yes" OrderNumber="1" /><ItemRef ItemOID="IT.SUPPCM.RDOMAIN" KeySequence="2" Mandatory="Yes" MethodOID="MT.RDOMAIN" OrderNumber="2" /><ItemRef ItemOID="IT.SUPPCM.USUBJID" KeySequence="3" Mandatory="Yes" MethodOID="MT.USUBJID" OrderNumber="3" /><ItemRef ItemOID="IT.SUPPCM.IDVAR" KeySequence="4" Mandatory="No" OrderNumber="4" /><ItemRef ItemOID="IT.SUPPCM.IDVARVAL" KeySequence="5" Mandatory="No" OrderNumber="5" /><ItemRef ItemOID="IT.SUPPCM.QNAM" KeySequence="6" Mandatory="Yes" OrderNumber="6" /><ItemRef ItemOID="IT.SUPPCM.QLABEL" Mandatory="Yes" OrderNumber="7" /><ItemRef ItemOID="IT.SUPPCM.QVAL" Mandatory="Yes" OrderNumber="8" /><ItemRef ItemOID="IT.SUPPCM.QORIG" Mandatory="Yes" OrderNumber="9" /><ItemRef ItemOID="IT.SUPPCM.QEVAL" Mandatory="No" OrderNumber="10" /><def:leaf ID="LF.SUPPCM" xlink:href="suppcm.xpt"><def:title>suppcm.xpt</def:title></def:leaf></ItemGroupDef><ItemGroupDef Domain="SUPPDM" IsReferenceData="No" Name="SUPPDM" OID="IG.SUPPDM" Purpose="Tabulation" Repeating="Yes" SASDatasetName="SUPPDM" def:ArchiveLocationID="LF.SUPPDM" def:Class="RELATIONSHIP" def:Structure="One record per IDVAR, IDVARVAL, and QNAM value per subject"><Description><TranslatedText xml:lang="en">Supplemental Qualifiers for DM</TranslatedText></Description><ItemRef ItemOID="IT.SUPPDM.STUDYID" KeySequence="1" Mandatory="Yes" OrderNumber="1" /><ItemRef ItemOID="IT.SUPPDM.RDOMAIN" KeySequence="2" Mandatory="Yes" MethodOID="MT.RDOMAIN" OrderNumber="2" /><ItemRef ItemOID="IT.SUPPDM.USUBJID" KeySequence="3" Mandatory="Yes" MethodOID="MT.USUBJID" OrderNumber="3" /><ItemRef ItemOID="IT.SUPPDM.IDVAR" KeySequence="4" Mandatory="No" OrderNumber="4" /><ItemRef ItemOID="IT.SUPPDM.IDVARVAL" KeySequence="5" Mandatory="No" OrderNumber="5" /><ItemRef ItemOID="IT.SUPPDM.QNAM" KeySequence="6" Mandatory="Yes" OrderNumber="6" /><ItemRef ItemOID="IT.SUPPDM.QLABEL" Mandatory="Yes" OrderNumber="7" /><ItemRef ItemOID="IT.SUPPDM.QVAL" Mandatory="Yes" OrderNumber="8" /><ItemRef ItemOID="IT.SUPPDM.QORIG" Mandatory="Yes" OrderNumber="9" /><ItemRef ItemOID="IT.SUPPDM.QEVAL" Mandatory="No" OrderNumber="10" /><def:leaf ID="LF.SUPPDM" xlink:href="suppdm.xpt"><def:title>suppdm.xpt</def:title></def:leaf></ItemGroupDef><ItemGroupDef Domain="SUPPEG" IsReferenceData="No" Name="SUPPEG" OID="IG.SUPPEG" Purpose="Tabulation" Repeating="Yes" SASDatasetName="SUPPEG" def:ArchiveLocationID="LF.SUPPEG" def:Class="RELATIONSHIP" def:Structure="One record per IDVAR, IDVARVAL, and QNAM value per subject"><Description><TranslatedText xml:lang="en">Supplemental Qualifiers for EG</TranslatedText></Description><ItemRef ItemOID="IT.SUPPEG.STUDYID" KeySequence="1" Mandatory="Yes" OrderNumber="1" /><ItemRef ItemOID="IT.SUPPEG.RDOMAIN" KeySequence="2" Mandatory="Yes" MethodOID="MT.RDOMAIN" OrderNumber="2" /><ItemRef ItemOID="IT.SUPPEG.USUBJID" KeySequence="3" Mandatory="Yes" MethodOID="MT.USUBJID" OrderNumber="3" /><ItemRef ItemOID="IT.SUPPEG.IDVAR" KeySequence="4" Mandatory="No" OrderNumber="4" /><ItemRef ItemOID="IT.SUPPEG.IDVARVAL" KeySequence="5" Mandatory="No" OrderNumber="5" /><ItemRef ItemOID="IT.SUPPEG.QNAM" KeySequence="6" Mandatory="Yes" OrderNumber="6" /><ItemRef ItemOID="IT.SUPPEG.QLABEL" Mandatory="Yes" OrderNumber="7" /><ItemRef ItemOID="IT.SUPPEG.QVAL" Mandatory="Yes" OrderNumber="8" /><ItemRef ItemOID="IT.SUPPEG.QORIG" Mandatory="Yes" OrderNumber="9" /><ItemRef ItemOID="IT.SUPPEG.QEVAL" Mandatory="No" OrderNumber="10" /><def:leaf ID="LF.SUPPEG" xlink:href="suppeg.xpt"><def:title>suppeg.xpt</def:title></def:leaf></ItemGroupDef><ItemGroupDef Domain="SUPPEX" IsReferenceData="No" Name="SUPPEX" OID="IG.SUPPEX" Purpose="Tabulation" Repeating="Yes" SASDatasetName="SUPPEX" def:ArchiveLocationID="LF.SUPPEX" def:Class="RELATIONSHIP" def:Structure="One record per IDVAR, IDVARVAL, and QNAM value per subject"><Description><TranslatedText xml:lang="en">Supplemental Qualifiers for EX</TranslatedText></Description><ItemRef ItemOID="IT.SUPPEX.STUDYID" KeySequence="1" Mandatory="Yes" OrderNumber="1" /><ItemRef ItemOID="IT.SUPPEX.RDOMAIN" KeySequence="2" Mandatory="Yes" MethodOID="MT.RDOMAIN" OrderNumber="2" /><ItemRef ItemOID="IT.SUPPEX.USUBJID" KeySequence="3" Mandatory="Yes" MethodOID="MT.USUBJID" OrderNumber="3" /><ItemRef ItemOID="IT.SUPPEX.IDVAR" KeySequence="4" Mandatory="No" OrderNumber="4" /><ItemRef ItemOID="IT.SUPPEX.IDVARVAL" KeySequence="5" Mandatory="No" OrderNumber="5" /><ItemRef ItemOID="IT.SUPPEX.QNAM" KeySequence="6" Mandatory="Yes" OrderNumber="6" /><ItemRef ItemOID="IT.SUPPEX.QLABEL" Mandatory="Yes" OrderNumber="7" /><ItemRef ItemOID="IT.SUPPEX.QVAL" Mandatory="Yes" OrderNumber="8" /><ItemRef ItemOID="IT.SUPPEX.QORIG" Mandatory="Yes" OrderNumber="9" /><ItemRef ItemOID="IT.SUPPEX.QEVAL" Mandatory="No" OrderNumber="10" /><def:leaf ID="LF.SUPPEX" xlink:href="suppex.xpt"><def:title>suppex.xpt</def:title></def:leaf></ItemGroupDef><ItemGroupDef Domain="SUPPLB" IsReferenceData="No" Name="SUPPLB" OID="IG.SUPPLB" Purpose="Tabulation" Repeating="Yes" SASDatasetName="SUPPLB" def:ArchiveLocationID="LF.SUPPLB" def:Class="RELATIONSHIP" def:Structure="One record per IDVAR, IDVARVAL, and QNAM value per subject"><Description><TranslatedText xml:lang="en">Supplemental Qualifiers for LB</TranslatedText></Description><ItemRef ItemOID="IT.SUPPLB.STUDYID" KeySequence="1" Mandatory="Yes" OrderNumber="1" /><ItemRef ItemOID="IT.SUPPLB.RDOMAIN" KeySequence="2" Mandatory="Yes" MethodOID="MT.RDOMAIN" OrderNumber="2" /><ItemRef ItemOID="IT.SUPPLB.USUBJID" KeySequence="3" Mandatory="Yes" MethodOID="MT.USUBJID" OrderNumber="3" /><ItemRef ItemOID="IT.SUPPLB.IDVAR" KeySequence="4" Mandatory="No" OrderNumber="4" /><ItemRef ItemOID="IT.SUPPLB.IDVARVAL" KeySequence="5" Mandatory="No" OrderNumber="5" /><ItemRef ItemOID="IT.SUPPLB.QNAM" KeySequence="6" Mandatory="Yes" OrderNumber="6" /><ItemRef ItemOID="IT.SUPPLB.QLABEL" Mandatory="Yes" OrderNumber="7" /><ItemRef ItemOID="IT.SUPPLB.QVAL" Mandatory="Yes" OrderNumber="8" /><ItemRef ItemOID="IT.SUPPLB.QORIG" Mandatory="Yes" OrderNumber="9" /><ItemRef ItemOID="IT.SUPPLB.QEVAL" Mandatory="No" OrderNumber="10" /><def:leaf ID="LF.SUPPLB" xlink:href="supplb.xpt"><def:title>supplb.xpt</def:title></def:leaf></ItemGroupDef><ItemGroupDef Domain="SUPPQSCG" IsReferenceData="No" Name="SUPPQSCG" OID="IG.SUPPQSCG" Purpose="Tabulation" Repeating="Yes" SASDatasetName="SUPPQSCG" def:ArchiveLocationID="LF.SUPPQSCG" def:Class="RELATIONSHIP" def:Structure="One record per IDVAR, IDVARVAL, and QNAM value per subject"><Description><TranslatedText xml:lang="en">Supplemental Qualifiers for QSCG</TranslatedText></Description><ItemRef ItemOID="IT.SUPPQSCG.STUDYID" KeySequence="1" Mandatory="Yes" OrderNumber="1" /><ItemRef ItemOID="IT.SUPPQSCG.RDOMAIN" KeySequence="2" Mandatory="Yes" MethodOID="MT.RDOMAIN" OrderNumber="2" /><ItemRef ItemOID="IT.SUPPQSCG.USUBJID" KeySequence="3" Mandatory="Yes" MethodOID="MT.USUBJID" OrderNumber="3" /><ItemRef ItemOID="IT.SUPPQSCG.IDVAR" KeySequence="4" Mandatory="No" OrderNumber="4" /><ItemRef ItemOID="IT.SUPPQSCG.IDVARVAL" KeySequence="5" Mandatory="No" OrderNumber="5" /><ItemRef ItemOID="IT.SUPPQSCG.QNAM" KeySequence="6" Mandatory="Yes" OrderNumber="6" /><ItemRef ItemOID="IT.SUPPQSCG.QLABEL" Mandatory="Yes" OrderNumber="7" /><ItemRef ItemOID="IT.SUPPQSCG.QVAL" Mandatory="Yes" OrderNumber="8" /><ItemRef ItemOID="IT.SUPPQSCG.QORIG" Mandatory="Yes" OrderNumber="9" /><ItemRef ItemOID="IT.SUPPQSCG.QEVAL" Mandatory="No" OrderNumber="10" /><def:leaf ID="LF.SUPPQSCG" xlink:href="suppqscg.xpt"><def:title>suppqscg.xpt</def:title></def:leaf></ItemGroupDef><ItemGroupDef Domain="SUPPQSCS" IsReferenceData="No" Name="SUPPQSCS" OID="IG.SUPPQSCS" Purpose="Tabulation" Repeating="Yes" SASDatasetName="SUPPQSCS" def:ArchiveLocationID="LF.SUPPQSCS" def:Class="RELATIONSHIP" def:Structure="One record per IDVAR, IDVARVAL, and QNAM value per subject"><Description><TranslatedText xml:lang="en">Supplemental Qualifiers for QSCS</TranslatedText></Description><ItemRef ItemOID="IT.SUPPQSCS.STUDYID" KeySequence="1" Mandatory="Yes" OrderNumber="1" /><ItemRef ItemOID="IT.SUPPQSCS.RDOMAIN" KeySequence="2" Mandatory="Yes" MethodOID="MT.RDOMAIN" OrderNumber="2" /><ItemRef ItemOID="IT.SUPPQSCS.USUBJID" KeySequence="3" Mandatory="Yes" MethodOID="MT.USUBJID" OrderNumber="3" /><ItemRef ItemOID="IT.SUPPQSCS.IDVAR" KeySequence="4" Mandatory="No" OrderNumber="4" /><ItemRef ItemOID="IT.SUPPQSCS.IDVARVAL" KeySequence="5" Mandatory="No" OrderNumber="5" /><ItemRef ItemOID="IT.SUPPQSCS.QNAM" KeySequence="6" Mandatory="Yes" OrderNumber="6" /><ItemRef ItemOID="IT.SUPPQSCS.QLABEL" Mandatory="Yes" OrderNumber="7" /><ItemRef ItemOID="IT.SUPPQSCS.QVAL" Mandatory="Yes" OrderNumber="8" /><ItemRef ItemOID="IT.SUPPQSCS.QORIG" Mandatory="Yes" OrderNumber="9" /><ItemRef ItemOID="IT.SUPPQSCS.QEVAL" Mandatory="No" OrderNumber="10" /><def:leaf ID="LF.SUPPQSCS" xlink:href="suppqscs.xpt"><def:title>suppqscs.xpt</def:title></def:leaf></ItemGroupDef><ItemGroupDef Domain="SUPPQSMM" IsReferenceData="No" Name="SUPPQSMM" OID="IG.SUPPQSMM" Purpose="Tabulation" Repeating="Yes" SASDatasetName="SUPPQSMM" def:ArchiveLocationID="LF.SUPPQSMM" def:Class="RELATIONSHIP" def:Structure="One record per IDVAR, IDVARVAL, and QNAM value per subject"><Description><TranslatedText xml:lang="en">Supplemental Qualifiers for QSMM</TranslatedText></Description><ItemRef ItemOID="IT.SUPPQSMM.STUDYID" KeySequence="1" Mandatory="Yes" OrderNumber="1" /><ItemRef ItemOID="IT.SUPPQSMM.RDOMAIN" KeySequence="2" Mandatory="Yes" MethodOID="MT.RDOMAIN" OrderNumber="2" /><ItemRef ItemOID="IT.SUPPQSMM.USUBJID" KeySequence="3" Mandatory="Yes" MethodOID="MT.USUBJID" OrderNumber="3" /><ItemRef ItemOID="IT.SUPPQSMM.IDVAR" KeySequence="4" Mandatory="No" OrderNumber="4" /><ItemRef ItemOID="IT.SUPPQSMM.IDVARVAL" KeySequence="5" Mandatory="No" OrderNumber="5" /><ItemRef ItemOID="IT.SUPPQSMM.QNAM" KeySequence="6" Mandatory="Yes" OrderNumber="6" /><ItemRef ItemOID="IT.SUPPQSMM.QLABEL" Mandatory="Yes" OrderNumber="7" /><ItemRef ItemOID="IT.SUPPQSMM.QVAL" Mandatory="Yes" OrderNumber="8" /><ItemRef ItemOID="IT.SUPPQSMM.QORIG" Mandatory="Yes" OrderNumber="9" /><ItemRef ItemOID="IT.SUPPQSMM.QEVAL" Mandatory="No" OrderNumber="10" /><def:leaf ID="LF.SUPPQSMM" xlink:href="suppqsmm.xpt"><def:title>suppqsmm.xpt</def:title></def:leaf></ItemGroupDef><ItemGroupDef Domain="SUPPVS" IsReferenceData="No" Name="SUPPVS" OID="IG.SUPPVS" Purpose="Tabulation" Repeating="Yes" SASDatasetName="SUPPVS" def:ArchiveLocationID="LF.SUPPVS" def:Class="RELATIONSHIP" def:Structure="One record per IDVAR, IDVARVAL, and QNAM value per subject"><Description><TranslatedText xml:lang="en">Supplemental Qualifiers for VS</TranslatedText></Description><ItemRef ItemOID="IT.SUPPVS.STUDYID" KeySequence="1" Mandatory="Yes" OrderNumber="1" /><ItemRef ItemOID="IT.SUPPVS.RDOMAIN" KeySequence="2" Mandatory="Yes" MethodOID="MT.RDOMAIN" OrderNumber="2" /><ItemRef ItemOID="IT.SUPPVS.USUBJID" KeySequence="3" Mandatory="Yes" MethodOID="MT.USUBJID" OrderNumber="3" /><ItemRef ItemOID="IT.SUPPVS.IDVAR" KeySequence="4" Mandatory="No" OrderNumber="4" /><ItemRef ItemOID="IT.SUPPVS.IDVARVAL" KeySequence="5" Mandatory="No" OrderNumber="5" /><ItemRef ItemOID="IT.SUPPVS.QNAM" KeySequence="6" Mandatory="Yes" OrderNumber="6" /><ItemRef ItemOID="IT.SUPPVS.QLABEL" Mandatory="Yes" OrderNumber="7" /><ItemRef ItemOID="IT.SUPPVS.QVAL" Mandatory="Yes" OrderNumber="8" /><ItemRef ItemOID="IT.SUPPVS.QORIG" Mandatory="Yes" OrderNumber="9" /><ItemRef ItemOID="IT.SUPPVS.QEVAL" Mandatory="No" OrderNumber="10" /><def:leaf ID="LF.SUPPVS" xlink:href="suppvs.xpt"><def:title>suppvs.xpt</def:title></def:leaf></ItemGroupDef><ItemGroupDef Domain="SV" IsReferenceData="No" Name="SV" OID="IG.SV" Purpose="Tabulation" Repeating="Yes" SASDatasetName="SV" def:ArchiveLocationID="LF.SV" def:Class="SPECIAL PURPOSE" def:Structure="One record per actual visit per subject"><Description><TranslatedText xml:lang="en">Subject Visits</TranslatedText></Description><ItemRef ItemOID="IT.SV.STUDYID" KeySequence="1" Mandatory="Yes" OrderNumber="1" /><ItemRef ItemOID="IT.SV.DOMAIN" Mandatory="Yes" OrderNumber="2" /><ItemRef ItemOID="IT.SV.USUBJID" KeySequence="2" Mandatory="Yes" MethodOID="MT.USUBJID" OrderNumber="3" /><ItemRef ItemOID="IT.SV.VISITNUM" KeySequence="4" Mandatory="Yes" MethodOID="MT.SV.VISITNUM" OrderNumber="4" /><ItemRef ItemOID="IT.SV.VISIT" Mandatory="No" MethodOID="MT.SV.VISIT" OrderNumber="5" /><ItemRef ItemOID="IT.SV.VISITDY" Mandatory="No" OrderNumber="6" /><ItemRef ItemOID="IT.SV.SVSTDTC" KeySequence="3" Mandatory="No" MethodOID="MT.SVSTDTC" OrderNumber="7" /><ItemRef ItemOID="IT.SV.SVENDTC" Mandatory="No" MethodOID="MT.SVENDTC" OrderNumber="8" /><ItemRef ItemOID="IT.SV.SVSTDY" Mandatory="No" MethodOID="MT.SVSTDY" OrderNumber="9" /><def:leaf ID="LF.SV" xlink:href="sv.xpt"><def:title>sv.xpt</def:title></def:leaf></ItemGroupDef><ItemGroupDef Domain="TA" IsReferenceData="Yes" Name="TA" OID="IG.TA" Purpose="Tabulation" Repeating="No" SASDatasetName="TA" def:ArchiveLocationID="LF.TA" def:Class="TRIAL DESIGN" def:Structure="One record per planned Element per Arm"><Description><TranslatedText xml:lang="en">Trial Arms</TranslatedText></Description><ItemRef ItemOID="IT.TA.STUDYID" KeySequence="1" Mandatory="Yes" OrderNumber="1" /><ItemRef ItemOID="IT.TA.DOMAIN" Mandatory="Yes" OrderNumber="2" /><ItemRef ItemOID="IT.TA.ARMCD" KeySequence="2" Mandatory="Yes" OrderNumber="3" /><ItemRef ItemOID="IT.TA.ARM" Mandatory="Yes" OrderNumber="4" /><ItemRef ItemOID="IT.TA.TAETORD" KeySequence="3" Mandatory="Yes" OrderNumber="5" /><ItemRef ItemOID="IT.TA.ETCD" Mandatory="Yes" OrderNumber="6" /><ItemRef ItemOID="IT.TA.ELEMENT" Mandatory="No" OrderNumber="7" /><ItemRef ItemOID="IT.TA.TABRANCH" Mandatory="No" OrderNumber="8" /><ItemRef ItemOID="IT.TA.TATRANS" Mandatory="No" OrderNumber="9" /><ItemRef ItemOID="IT.TA.EPOCH" Mandatory="Yes" OrderNumber="10" /><def:leaf ID="LF.TA" xlink:href="ta.xpt"><def:title>ta.xpt</def:title></def:leaf></ItemGroupDef><ItemGroupDef Domain="TE" IsReferenceData="Yes" Name="TE" OID="IG.TE" Purpose="Tabulation" Repeating="No" SASDatasetName="TE" def:ArchiveLocationID="LF.TE" def:Class="TRIAL DESIGN" def:Structure="One record per planned Element"><Description><TranslatedText xml:lang="en">Trial Elements</TranslatedText></Description><ItemRef ItemOID="IT.TE.STUDYID" KeySequence="1" Mandatory="Yes" OrderNumber="1" /><ItemRef ItemOID="IT.TE.DOMAIN" Mandatory="Yes" OrderNumber="2" /><ItemRef ItemOID="IT.TE.ETCD" KeySequence="2" Mandatory="Yes" OrderNumber="3" /><ItemRef ItemOID="IT.TE.ELEMENT" Mandatory="Yes" OrderNumber="4" /><ItemRef ItemOID="IT.TE.TESTRL" Mandatory="Yes" OrderNumber="5" /><ItemRef ItemOID="IT.TE.TEDUR" Mandatory="No" OrderNumber="6" /><def:leaf ID="LF.TE" xlink:href="te.xpt"><def:title>te.xpt</def:title></def:leaf></ItemGroupDef><ItemGroupDef Domain="TI" IsReferenceData="Yes" Name="TI" OID="IG.TI" Purpose="Tabulation" Repeating="No" SASDatasetName="TI" def:ArchiveLocationID="LF.TI" def:Class="TRIAL DESIGN" def:Structure="One record per I/E criterion"><Description><TranslatedText xml:lang="en">Trial Inclusion/Exclusion Criteria</TranslatedText></Description><ItemRef ItemOID="IT.TI.STUDYID" KeySequence="1" Mandatory="Yes" OrderNumber="1" /><ItemRef ItemOID="IT.TI.DOMAIN" Mandatory="Yes" OrderNumber="2" /><ItemRef ItemOID="IT.TI.IETESTCD" KeySequence="2" Mandatory="Yes" OrderNumber="3" /><ItemRef ItemOID="IT.TI.IETEST" Mandatory="Yes" OrderNumber="4" /><ItemRef ItemOID="IT.TI.IECAT" Mandatory="Yes" OrderNumber="5" /><def:leaf ID="LF.TI" xlink:href="ti.xpt"><def:title>ti.xpt</def:title></def:leaf></ItemGroupDef><ItemGroupDef Domain="TS" IsReferenceData="Yes" Name="TS" OID="IG.TS" Purpose="Tabulation" Repeating="No" SASDatasetName="TS" def:ArchiveLocationID="LF.TS" def:Class="TRIAL DESIGN" def:Structure="One record per trial summary parameter value"><Description><TranslatedText xml:lang="en">Trial Summary</TranslatedText></Description><ItemRef ItemOID="IT.TS.STUDYID" KeySequence="1" Mandatory="Yes" OrderNumber="1" /><ItemRef ItemOID="IT.TS.DOMAIN" Mandatory="Yes" OrderNumber="2" /><ItemRef ItemOID="IT.TS.TSSEQ" KeySequence="3" Mandatory="Yes" MethodOID="MT.TSSEQ" OrderNumber="3" /><ItemRef ItemOID="IT.TS.TSPARMCD" KeySequence="2" Mandatory="Yes" OrderNumber="4" /><ItemRef ItemOID="IT.TS.TSPARM" Mandatory="Yes" OrderNumber="5" /><ItemRef ItemOID="IT.TS.TSVAL" Mandatory="Yes" OrderNumber="6" /><def:leaf ID="LF.TS" xlink:href="ts.xpt"><def:title>ts.xpt</def:title></def:leaf></ItemGroupDef><ItemGroupDef Domain="TV" IsReferenceData="Yes" Name="TV" OID="IG.TV" Purpose="Tabulation" Repeating="No" SASDatasetName="TV" def:ArchiveLocationID="LF.TV" def:Class="TRIAL DESIGN" def:Structure="One record per planned Visit per Arm"><Description><TranslatedText xml:lang="en">Trial Visits</TranslatedText></Description><ItemRef ItemOID="IT.TV.STUDYID" KeySequence="1" Mandatory="Yes" OrderNumber="1" /><ItemRef ItemOID="IT.TV.DOMAIN" Mandatory="Yes" OrderNumber="2" /><ItemRef ItemOID="IT.TV.VISITNUM" KeySequence="2" Mandatory="Yes" OrderNumber="3" /><ItemRef ItemOID="IT.TV.VISIT" Mandatory="No" OrderNumber="4" /><ItemRef ItemOID="IT.TV.VISITDY" Mandatory="No" OrderNumber="5" /><ItemRef ItemOID="IT.TV.ARMCD" KeySequence="3" Mandatory="No" OrderNumber="6" /><ItemRef ItemOID="IT.TV.TVSTRL" Mandatory="Yes" OrderNumber="7" /><def:leaf ID="LF.TV" xlink:href="tv.xpt"><def:title>tv.xpt</def:title></def:leaf></ItemGroupDef><ItemGroupDef Domain="VS" IsReferenceData="No" Name="VS" OID="IG.VS" Purpose="Tabulation" Repeating="Yes" SASDatasetName="VS" def:ArchiveLocationID="LF.VS" def:Class="FINDINGS" def:Structure="One record per vital sign measurement per visit per subject"><Description><TranslatedText xml:lang="en">Vital Signs</TranslatedText></Description><ItemRef ItemOID="IT.VS.STUDYID" KeySequence="1" Mandatory="Yes" OrderNumber="1" /><ItemRef ItemOID="IT.VS.DOMAIN" Mandatory="Yes" OrderNumber="2" /><ItemRef ItemOID="IT.VS.USUBJID" KeySequence="2" Mandatory="Yes" MethodOID="MT.USUBJID" OrderNumber="3" /><ItemRef ItemOID="IT.VS.VSSEQ" Mandatory="Yes" MethodOID="MT.SEQ" OrderNumber="4" /><ItemRef ItemOID="IT.VS.VSTESTCD" KeySequence="3" Mandatory="Yes" OrderNumber="5" /><ItemRef ItemOID="IT.VS.VSTEST" Mandatory="Yes" OrderNumber="6" /><ItemRef ItemOID="IT.VS.VSPOS" KeySequence="6" Mandatory="No" OrderNumber="7" /><ItemRef ItemOID="IT.VS.VSORRES" Mandatory="No" OrderNumber="8" /><ItemRef ItemOID="IT.VS.VSORRESU" Mandatory="No" OrderNumber="9" /><ItemRef ItemOID="IT.VS.VSSTRESC" Mandatory="No" MethodOID="MT.VSSTRESC" OrderNumber="10" /><ItemRef ItemOID="IT.VS.VSSTRESN" Mandatory="No" MethodOID="MT.VSSTRESN" OrderNumber="11" /><ItemRef ItemOID="IT.VS.VSSTRESU" Mandatory="No" OrderNumber="12" /><ItemRef ItemOID="IT.VS.VSBLFL" Mandatory="No" MethodOID="MT.VSBLFL" OrderNumber="13" /><ItemRef ItemOID="IT.VS.VISITNUM" KeySequence="5" Mandatory="No" OrderNumber="14" /><ItemRef ItemOID="IT.VS.VISIT" Mandatory="No" OrderNumber="15" /><ItemRef ItemOID="IT.VS.VISITDY" Mandatory="No" OrderNumber="16" /><ItemRef ItemOID="IT.VS.VSDTC" KeySequence="4" Mandatory="No" OrderNumber="17" /><ItemRef ItemOID="IT.VS.VSDY" Mandatory="No" MethodOID="MT.VSDY" OrderNumber="18" /><def:leaf ID="LF.VS" xlink:href="vs.xpt"><def:title>vs.xpt</def:title></def:leaf></ItemGroupDef><ItemDef DataType="text" Length="7" Name="STUDYID" OID="IT.AE.STUDYID" SASFieldName="STUDYID"><Description><TranslatedText xml:lang="en">Study Identifier</TranslatedText></Description><def:Origin Type="Protocol" /></ItemDef><ItemDef DataType="text" Length="2" Name="DOMAIN" OID="IT.AE.DOMAIN" SASFieldName="DOMAIN"><Description><TranslatedText xml:lang="en">Domain Abbreviation</TranslatedText></Description><CodeListRef CodeListOID="CL.AE.DOMAIN" /><def:Origin Type="Assigned" /></ItemDef><ItemDef DataType="text" Length="14" Name="USUBJID" OID="IT.AE.USUBJID" SASFieldName="USUBJID"><Description><TranslatedText xml:lang="en">Unique Subject Identifier</TranslatedText></Description><def:Origin Type="Derived" /></ItemDef><ItemDef DataType="integer" Length="1" Name="AESEQ" OID="IT.AE.AESEQ" SASFieldName="AESEQ"><Description><TranslatedText xml:lang="en">Sequence Number</TranslatedText></Description><def:Origin Type="Derived" /></ItemDef><ItemDef DataType="text" Length="4" Name="AESPID" OID="IT.AE.AESPID" SASFieldName="AESPID"><Description><TranslatedText xml:lang="en">Sponsor-Defined Identifier</TranslatedText></Description><def:Origin Type="CRF"><def:DocumentRef leafID="LF.blankcrf"><def:PDFPageRef PageRefs="21" Type="PhysicalRef" /></def:DocumentRef></def:Origin></ItemDef><ItemDef DataType="text" Length="25" Name="AETERM" OID="IT.AE.AETERM" SASFieldName="AETERM"><Description><TranslatedText xml:lang="en">Reported Term for the Adverse Event</TranslatedText></Description><def:Origin Type="CRF"><def:DocumentRef leafID="LF.blankcrf"><def:PDFPageRef PageRefs="21" Type="PhysicalRef" /></def:DocumentRef></def:Origin></ItemDef><ItemDef DataType="text" Length="9" Name="AEMODIFY" OID="IT.AE.AEMODIFY" SASFieldName="AEMODIFY"><Description><TranslatedText xml:lang="en">Modified Reported Term</TranslatedText></Description><def:Origin Type="Assigned" /></ItemDef><ItemDef DataType="text" Length="18" Name="AEDECOD" OID="IT.AE.AEDECOD" SASFieldName="AEDECOD"><Description><TranslatedText xml:lang="en">Dictionary-Derived Term</TranslatedText></Description><CodeListRef CodeListOID="CL.AEDICT_F" /><def:Origin Type="Assigned" /></ItemDef><ItemDef DataType="text" Length="52" Name="AEBODSYS" OID="IT.AE.AEBODSYS" SASFieldName="AEBODSYS"><Description><TranslatedText xml:lang="en">Body System or Organ Class</TranslatedText></Description><CodeListRef CodeListOID="CL.AEDICT_F" /><def:Origin Type="Assigned" /></ItemDef><ItemDef DataType="text" Length="8" Name="AESEV" OID="IT.AE.AESEV" SASFieldName="AESEV"><Description><TranslatedText xml:lang="en">Severity/Intensity</TranslatedText></Description><CodeListRef CodeListOID="CL.AESEV" /><def:Origin Type="CRF"><def:DocumentRef leafID="LF.blankcrf"><def:PDFPageRef PageRefs="21" Type="PhysicalRef" /></def:DocumentRef></def:Origin></ItemDef><ItemDef DataType="text" Length="1" Name="AESER" OID="IT.AE.AESER" SASFieldName="AESER"><Description><TranslatedText xml:lang="en">Serious Event</TranslatedText></Description><CodeListRef CodeListOID="CL.NY" /><def:Origin Type="CRF"><def:DocumentRef leafID="LF.blankcrf"><def:PDFPageRef PageRefs="21" Type="PhysicalRef" /></def:DocumentRef></def:Origin></ItemDef><ItemDef DataType="text" Length="30" Name="AEACN" OID="IT.AE.AEACN" SASFieldName="AEACN"><Description><TranslatedText xml:lang="en">Action Taken with Study Treatment</TranslatedText></Description><CodeListRef CodeListOID="CL.ACN" /><def:Origin Type="CRF"><def:DocumentRef leafID="LF.blankcrf"><def:PDFPageRef PageRefs="21" Type="PhysicalRef" /></def:DocumentRef></def:Origin></ItemDef><ItemDef DataType="text" Length="16" Name="AEREL" OID="IT.AE.AEREL" SASFieldName="AEREL"><Description><TranslatedText xml:lang="en">Causality</TranslatedText></Description><CodeListRef CodeListOID="CL.AEREL" /><def:Origin Type="CRF"><def:DocumentRef leafID="LF.blankcrf"><def:PDFPageRef PageRefs="21" Type="PhysicalRef" /></def:DocumentRef></def:Origin></ItemDef><ItemDef DataType="date" Name="AESTDTC" OID="IT.AE.AESTDTC" SASFieldName="AESTDTC"><Description><TranslatedText xml:lang="en">Start Date/Time of Adverse Event</TranslatedText></Description><def:Origin Type="CRF"><def:DocumentRef leafID="LF.blankcrf"><def:PDFPageRef PageRefs="21" Type="PhysicalRef" /></def:DocumentRef></def:Origin></ItemDef><ItemDef DataType="date" Name="AEENDTC" OID="IT.AE.AEENDTC" SASFieldName="AEENDTC"><Description><TranslatedText xml:lang="en">End Date/Time of Adverse Event</TranslatedText></Description><def:Origin Type="CRF"><def:DocumentRef leafID="LF.blankcrf"><def:PDFPageRef PageRefs="21" Type="PhysicalRef" /></def:DocumentRef></def:Origin></ItemDef><ItemDef DataType="integer" Length="3" Name="AESTDY" OID="IT.AE.AESTDY" SASFieldName="AESTDY"><Description><TranslatedText xml:lang="en">Study Day of Start of Adverse Event</TranslatedText></Description><def:Origin Type="Derived" /></ItemDef><ItemDef DataType="integer" Length="3" Name="AEENDY" OID="IT.AE.AEENDY" SASFieldName="AEENDY"><Description><TranslatedText xml:lang="en">Study Day of End of Adverse Event</TranslatedText></Description><def:Origin Type="Derived" /></ItemDef><ItemDef DataType="text" Length="5" Name="AEENRF" OID="IT.AE.AEENRF" SASFieldName="AEENRF"><Description><TranslatedText xml:lang="en">End Relative to Reference Period</TranslatedText></Description><CodeListRef CodeListOID="CL.AEENRF" /><def:Origin Type="CRF"><def:DocumentRef leafID="LF.blankcrf"><def:PDFPageRef PageRefs="21" Type="PhysicalRef" /></def:DocumentRef></def:Origin></ItemDef><ItemDef DataType="text" Length="7" Name="STUDYID" OID="IT.CM.STUDYID" SASFieldName="STUDYID"><Description><TranslatedText xml:lang="en">Study Identifier</TranslatedText></Description><def:Origin Type="Protocol" /></ItemDef><ItemDef DataType="text" Length="2" Name="DOMAIN" OID="IT.CM.DOMAIN" SASFieldName="DOMAIN"><Description><TranslatedText xml:lang="en">Domain Abbreviation</TranslatedText></Description><CodeListRef CodeListOID="CL.CM.DOMAIN" /><def:Origin Type="Assigned" /></ItemDef><ItemDef DataType="text" Length="14" Name="USUBJID" OID="IT.CM.USUBJID" SASFieldName="USUBJID"><Description><TranslatedText xml:lang="en">Unique Subject Identifier</TranslatedText></Description><def:Origin Type="Derived" /></ItemDef><ItemDef DataType="integer" Length="2" Name="CMSEQ" OID="IT.CM.CMSEQ" SASFieldName="CMSEQ"><Description><TranslatedText xml:lang="en">Sequence Number</TranslatedText></Description><def:Origin Type="Derived" /></ItemDef><ItemDef DataType="text" Length="23" Name="CMTRT" OID="IT.CM.CMTRT" SASFieldName="CMTRT"><Description><TranslatedText xml:lang="en">Reported Name of Drug, Med, or Therapy</TranslatedText></Description><def:Origin Type="CRF"><def:DocumentRef leafID="LF.blankcrf"><def:PDFPageRef PageRefs="9 22" Type="PhysicalRef" /></def:DocumentRef></def:Origin></ItemDef><ItemDef DataType="text" Length="23" Name="CMMODIFY" OID="IT.CM.CMMODIFY" SASFieldName="CMMODIFY"><Description><TranslatedText xml:lang="en">Modified Reported Name</TranslatedText></Description><def:Origin Type="Assigned" /></ItemDef><ItemDef DataType="text" Length="30" Name="CMDECOD" OID="IT.CM.CMDECOD" SASFieldName="CMDECOD"><Description><TranslatedText xml:lang="en">Standardized Medication Name</TranslatedText></Description><CodeListRef CodeListOID="CL.DRUGDICT_F" /><def:Origin Type="Assigned" /></ItemDef><ItemDef DataType="text" Length="36" Name="CMCAT" OID="IT.CM.CMCAT" SASFieldName="CMCAT"><Description><TranslatedText xml:lang="en">Category for Medication</TranslatedText></Description><CodeListRef CodeListOID="CL.CMCAT" /><def:Origin Type="CRF"><def:DocumentRef leafID="LF.blankcrf"><def:PDFPageRef PageRefs="9 22" Type="PhysicalRef" /></def:DocumentRef></def:Origin></ItemDef><ItemDef DataType="text" Length="27" Name="CMINDC" OID="IT.CM.CMINDC" SASFieldName="CMINDC"><Description><TranslatedText xml:lang="en">Indication</TranslatedText></Description><def:Origin Type="CRF"><def:DocumentRef leafID="LF.blankcrf"><def:PDFPageRef PageRefs="9 22" Type="PhysicalRef" /></def:DocumentRef></def:Origin></ItemDef><ItemDef DataType="text" Length="45" Name="CMCLAS" OID="IT.CM.CMCLAS" SASFieldName="CMCLAS" def:CommentOID="COM.CMCLAS"><Description><TranslatedText xml:lang="en">Medication Class</TranslatedText></Description><CodeListRef CodeListOID="CL.DRUGDICT_F" /><def:Origin Type="Assigned" /></ItemDef><ItemDef DataType="text" Length="3" Name="CMCLASCD" OID="IT.CM.CMCLASCD" SASFieldName="CMCLASCD" def:CommentOID="COM.CMCLASCD"><Description><TranslatedText xml:lang="en">Medication Class Code</TranslatedText></Description><CodeListRef CodeListOID="CL.DRUGDICT_F" /><def:Origin Type="Assigned" /></ItemDef><ItemDef DataType="text" Length="4" Name="CMDOSTXT" OID="IT.CM.CMDOSTXT" SASFieldName="CMDOSTXT"><Description><TranslatedText xml:lang="en">Dose Description</TranslatedText></Description><def:Origin Type="CRF"><def:DocumentRef leafID="LF.blankcrf"><def:PDFPageRef PageRefs="9 22" Type="PhysicalRef" /></def:DocumentRef></def:Origin></ItemDef><ItemDef DataType="text" Length="6" Name="CMDOSU" OID="IT.CM.CMDOSU" SASFieldName="CMDOSU"><Description><TranslatedText xml:lang="en">Dose Units</TranslatedText></Description><CodeListRef CodeListOID="CL.CMUNIT" /><def:Origin Type="CRF"><def:DocumentRef leafID="LF.blankcrf"><def:PDFPageRef PageRefs="9 22" Type="PhysicalRef" /></def:DocumentRef></def:Origin></ItemDef><ItemDef DataType="text" Length="5" Name="CMDOSFRQ" OID="IT.CM.CMDOSFRQ" SASFieldName="CMDOSFRQ"><Description><TranslatedText xml:lang="en">Dosing Frequency per Interval</TranslatedText></Description><CodeListRef CodeListOID="CL.FREQ" /><def:Origin Type="CRF"><def:DocumentRef leafID="LF.blankcrf"><def:PDFPageRef PageRefs="22" Type="PhysicalRef" /></def:DocumentRef></def:Origin></ItemDef><ItemDef DataType="text" Length="12" Name="CMROUTE" OID="IT.CM.CMROUTE" SASFieldName="CMROUTE" def:CommentOID="COM.CMROUTE"><Description><TranslatedText xml:lang="en">Route of Administration</TranslatedText></Description><CodeListRef CodeListOID="CL.ROUTE" /><def:Origin Type="CRF"><def:DocumentRef leafID="LF.blankcrf"><def:PDFPageRef PageRefs="22" Type="PhysicalRef" /></def:DocumentRef></def:Origin></ItemDef><ItemDef DataType="date" Name="CMSTDTC" OID="IT.CM.CMSTDTC" SASFieldName="CMSTDTC"><Description><TranslatedText xml:lang="en">Start Date/Time of Medication</TranslatedText></Description><def:Origin Type="CRF"><def:DocumentRef leafID="LF.blankcrf"><def:PDFPageRef PageRefs="9 22" Type="PhysicalRef" /></def:DocumentRef></def:Origin></ItemDef><ItemDef DataType="date" Name="CMENDTC" OID="IT.CM.CMENDTC" SASFieldName="CMENDTC"><Description><TranslatedText xml:lang="en">End Date/Time of Medication</TranslatedText></Description><def:Origin Type="CRF"><def:DocumentRef leafID="LF.blankcrf"><def:PDFPageRef PageRefs="9 22" Type="PhysicalRef" /></def:DocumentRef></def:Origin></ItemDef><ItemDef DataType="integer" Length="6" Name="CMSTDY" OID="IT.CM.CMSTDY" SASFieldName="CMSTDY"><Description><TranslatedText xml:lang="en">Study Day of Start of Medication</TranslatedText></Description><def:Origin Type="Derived" /></ItemDef><ItemDef DataType="integer" Length="4" Name="CMENDY" OID="IT.CM.CMENDY" SASFieldName="CMENDY"><Description><TranslatedText xml:lang="en">Study Day of End of Medication</TranslatedText></Description><def:Origin Type="Derived" /></ItemDef><ItemDef DataType="text" Length="6" Name="CMENRF" OID="IT.CM.CMENRF" SASFieldName="CMENRF"><Description><TranslatedText xml:lang="en">End Relative to Reference Period</TranslatedText></Description><CodeListRef CodeListOID="CL.CMENRF" /><def:Origin Type="CRF"><def:DocumentRef leafID="LF.blankcrf"><def:PDFPageRef PageRefs="22" Type="PhysicalRef" /></def:DocumentRef></def:Origin></ItemDef><ItemDef DataType="text" Length="7" Name="STUDYID" OID="IT.DA.STUDYID" SASFieldName="STUDYID"><Description><TranslatedText xml:lang="en">Study Identifier</TranslatedText></Description><def:Origin Type="Protocol" /></ItemDef><ItemDef DataType="text" Length="2" Name="DOMAIN" OID="IT.DA.DOMAIN" SASFieldName="DOMAIN"><Description><TranslatedText xml:lang="en">Domain Abbreviation</TranslatedText></Description><CodeListRef CodeListOID="CL.DA.DOMAIN" /><def:Origin Type="Assigned" /></ItemDef><ItemDef DataType="text" Length="14" Name="USUBJID" OID="IT.DA.USUBJID" SASFieldName="USUBJID"><Description><TranslatedText xml:lang="en">Unique Subject Identifier</TranslatedText></Description><def:Origin Type="Derived" /></ItemDef><ItemDef DataType="integer" Length="1" Name="DASEQ" OID="IT.DA.DASEQ" SASFieldName="DASEQ"><Description><TranslatedText xml:lang="en">Sequence Number</TranslatedText></Description><def:Origin Type="Derived" /></ItemDef><ItemDef DataType="text" Length="7" Name="DATESTCD" OID="IT.DA.DATESTCD" SASFieldName="DATESTCD"><Description><TranslatedText xml:lang="en">Short Name of Accountability Assessment</TranslatedText></Description><CodeListRef CodeListOID="CL.DATESTCD" /><def:Origin Type="Assigned" /></ItemDef><ItemDef DataType="text" Length="25" Name="DATEST" OID="IT.DA.DATEST" SASFieldName="DATEST"><Description><TranslatedText xml:lang="en">Name of Accountability Assessment</TranslatedText></Description><CodeListRef CodeListOID="CL.DATEST" /><def:Origin Type="CRF"><def:DocumentRef leafID="LF.blankcrf"><def:PDFPageRef PageRefs="19" Type="PhysicalRef" /></def:DocumentRef></def:Origin></ItemDef><ItemDef DataType="text" Length="2" Name="DAORRES" OID="IT.DA.DAORRES" SASFieldName="DAORRES"><Description><TranslatedText xml:lang="en">Assessment Result in Original Units</TranslatedText></Description><def:Origin Type="CRF"><def:DocumentRef leafID="LF.blankcrf"><def:PDFPageRef PageRefs="19" Type="PhysicalRef" /></def:DocumentRef></def:Origin><def:ValueListRef ValueListOID="VL.DA.DAORRES" /></ItemDef><ItemDef DataType="text" Length="7" Name="DAORRESU" OID="IT.DA.DAORRESU" SASFieldName="DAORRESU"><Description><TranslatedText xml:lang="en">Original Units</TranslatedText></Description><def:Origin Type="CRF"><def:DocumentRef leafID="LF.blankcrf"><def:PDFPageRef PageRefs="19" Type="PhysicalRef" /></def:DocumentRef></def:Origin></ItemDef><ItemDef DataType="text" Length="2" Name="DASTRESC" OID="IT.DA.DASTRESC" SASFieldName="DASTRESC"><Description><TranslatedText xml:lang="en">Assessment Result in Std Format</TranslatedText></Description><def:Origin Type="Derived" /></ItemDef><ItemDef DataType="integer" Length="2" Name="DASTRESN" OID="IT.DA.DASTRESN" SASFieldName="DASTRESN"><Description><TranslatedText xml:lang="en">Numeric Result/Finding in Standard Units</TranslatedText></Description><def:Origin Type="Derived" /></ItemDef><ItemDef DataType="text" Length="7" Name="DASTRESU" OID="IT.DA.DASTRESU" SASFieldName="DASTRESU"><Description><TranslatedText xml:lang="en">Assessment Standard Units</TranslatedText></Description><def:Origin Type="Derived" /></ItemDef><ItemDef DataType="integer" Length="2" Name="VISITNUM" OID="IT.DA.VISITNUM" SASFieldName="VISITNUM"><Description><TranslatedText xml:lang="en">Visit Number</TranslatedText></Description><def:Origin Type="Derived" /></ItemDef><ItemDef DataType="text" Length="8" Name="VISIT" OID="IT.DA.VISIT" SASFieldName="VISIT"><Description><TranslatedText xml:lang="en">Visit Name</TranslatedText></Description><def:Origin Type="Assigned" /></ItemDef><ItemDef DataType="integer" Length="3" Name="VISITDY" OID="IT.DA.VISITDY" SASFieldName="VISITDY"><Description><TranslatedText xml:lang="en">Planned Study Day of Visit</TranslatedText></Description><def:Origin Type="Protocol" /></ItemDef><ItemDef DataType="date" Name="DADTC" OID="IT.DA.DADTC" SASFieldName="DADTC"><Description><TranslatedText xml:lang="en">Date/Time of Accountability Assessment</TranslatedText></Description><def:Origin Type="CRF"><def:DocumentRef leafID="LF.blankcrf"><def:PDFPageRef PageRefs="19" Type="PhysicalRef" /></def:DocumentRef></def:Origin></ItemDef><ItemDef DataType="integer" Length="3" Name="DADY" OID="IT.DA.DADY" SASFieldName="DADY"><Description><TranslatedText xml:lang="en">Study Day of Accountability Assessment</TranslatedText></Description><def:Origin Type="Derived" /></ItemDef><ItemDef DataType="text" Length="7" Name="STUDYID" OID="IT.DM.STUDYID" SASFieldName="STUDYID"><Description><TranslatedText xml:lang="en">Study Identifier</TranslatedText></Description><def:Origin Type="Protocol" /></ItemDef><ItemDef DataType="text" Length="2" Name="DOMAIN" OID="IT.DM.DOMAIN" SASFieldName="DOMAIN"><Description><TranslatedText xml:lang="en">Domain Abbreviation</TranslatedText></Description><CodeListRef CodeListOID="CL.DM.DOMAIN" /><def:Origin Type="Assigned" /></ItemDef><ItemDef DataType="text" Length="14" Name="USUBJID" OID="IT.DM.USUBJID" SASFieldName="USUBJID"><Description><TranslatedText xml:lang="en">Unique Subject Identifier</TranslatedText></Description><def:Origin Type="Derived" /></ItemDef><ItemDef DataType="text" Length="6" Name="SUBJID" OID="IT.DM.SUBJID" SASFieldName="SUBJID"><Description><TranslatedText xml:lang="en">Subject Identifier for the Study</TranslatedText></Description><def:Origin Type="CRF"><def:DocumentRef leafID="LF.blankcrf"><def:PDFPageRef PageRefs="3" Type="PhysicalRef" /></def:DocumentRef></def:Origin></ItemDef><ItemDef DataType="date" Name="RFSTDTC" OID="IT.DM.RFSTDTC" SASFieldName="RFSTDTC"><Description><TranslatedText xml:lang="en">Subject Reference Start Date/Time</TranslatedText></Description><def:Origin Type="Derived" /></ItemDef><ItemDef DataType="date" Name="RFENDTC" OID="IT.DM.RFENDTC" SASFieldName="RFENDTC"><Description><TranslatedText xml:lang="en">Subject Reference End Date/Time</TranslatedText></Description><def:Origin Type="Derived" /></ItemDef><ItemDef DataType="text" Length="3" Name="SITEID" OID="IT.DM.SITEID" SASFieldName="SITEID"><Description><TranslatedText xml:lang="en">Study Site Identifier</TranslatedText></Description><def:Origin Type="CRF"><def:DocumentRef leafID="LF.blankcrf"><def:PDFPageRef PageRefs="3" Type="PhysicalRef" /></def:DocumentRef></def:Origin></ItemDef><ItemDef DataType="date" Name="BRTHDTC" OID="IT.DM.BRTHDTC" SASFieldName="BRTHDTC"><Description><TranslatedText xml:lang="en">Date/Time of Birth</TranslatedText></Description><def:Origin Type="CRF"><def:DocumentRef leafID="LF.blankcrf"><def:PDFPageRef PageRefs="6" Type="PhysicalRef" /></def:DocumentRef></def:Origin></ItemDef><ItemDef DataType="integer" Length="2" Name="AGE" OID="IT.DM.AGE" SASFieldName="AGE"><Description><TranslatedText xml:lang="en">Age</TranslatedText></Description><def:Origin Type="Derived" /></ItemDef><ItemDef DataType="text" Length="5" Name="AGEU" OID="IT.DM.AGEU" SASFieldName="AGEU" def:CommentOID="COM.AGEU"><Description><TranslatedText xml:lang="en">Age Units</TranslatedText></Description><def:Origin Type="Assigned" /></ItemDef><ItemDef DataType="text" Length="1" Name="SEX" OID="IT.DM.SEX" SASFieldName="SEX"><Description><TranslatedText xml:lang="en">Sex</TranslatedText></Description><CodeListRef CodeListOID="CL.SEX" /><def:Origin Type="CRF"><def:DocumentRef leafID="LF.blankcrf"><def:PDFPageRef PageRefs="6" Type="PhysicalRef" /></def:DocumentRef></def:Origin></ItemDef><ItemDef DataType="text" Length="40" Name="RACE" OID="IT.DM.RACE" SASFieldName="RACE"><Description><TranslatedText xml:lang="en">Race</TranslatedText></Description><CodeListRef CodeListOID="CL.RACE" /><def:Origin Type="CRF"><def:DocumentRef leafID="LF.blankcrf"><def:PDFPageRef PageRefs="6" Type="PhysicalRef" /></def:DocumentRef></def:Origin></ItemDef><ItemDef DataType="text" Length="22" Name="ETHNIC" OID="IT.DM.ETHNIC" SASFieldName="ETHNIC"><Description><TranslatedText xml:lang="en">Ethnicity</TranslatedText></Description><CodeListRef CodeListOID="CL.ETHNIC" /><def:Origin Type="CRF"><def:DocumentRef leafID="LF.blankcrf"><def:PDFPageRef PageRefs="6" Type="PhysicalRef" /></def:DocumentRef></def:Origin></ItemDef><ItemDef DataType="text" Length="8" Name="ARMCD" OID="IT.DM.ARMCD" SASFieldName="ARMCD" def:CommentOID="COM.ARMCD"><Description><TranslatedText xml:lang="en">Planned Arm Code</TranslatedText></Description><CodeListRef CodeListOID="CL.ARMCD" /><def:Origin Type="Assigned" /></ItemDef><ItemDef DataType="text" Length="20" Name="ARM" OID="IT.DM.ARM" SASFieldName="ARM" def:CommentOID="COM.ARM"><Description><TranslatedText xml:lang="en">Description of Planned Arm</TranslatedText></Description><CodeListRef CodeListOID="CL.ARM" /><def:Origin Type="Assigned" /></ItemDef><ItemDef DataType="text" Length="3" Name="COUNTRY" OID="IT.DM.COUNTRY" SASFieldName="COUNTRY"><Description><TranslatedText xml:lang="en">Country</TranslatedText></Description><CodeListRef CodeListOID="CL.ISO3166" /><def:Origin Type="Assigned" /></ItemDef><ItemDef DataType="text" Length="7" Name="STUDYID" OID="IT.DS.STUDYID" SASFieldName="STUDYID"><Description><TranslatedText xml:lang="en">Study Identifier</TranslatedText></Description><def:Origin Type="Protocol" /></ItemDef><ItemDef DataType="text" Length="2" Name="DOMAIN" OID="IT.DS.DOMAIN" SASFieldName="DOMAIN"><Description><TranslatedText xml:lang="en">Domain Abbreviation</TranslatedText></Description><CodeListRef CodeListOID="CL.DS.DOMAIN" /><def:Origin Type="Assigned" /></ItemDef><ItemDef DataType="text" Length="14" Name="USUBJID" OID="IT.DS.USUBJID" SASFieldName="USUBJID"><Description><TranslatedText xml:lang="en">Unique Subject Identifier</TranslatedText></Description><def:Origin Type="Derived" /></ItemDef><ItemDef DataType="integer" Length="1" Name="DSSEQ" OID="IT.DS.DSSEQ" SASFieldName="DSSEQ"><Description><TranslatedText xml:lang="en">Sequence Number</TranslatedText></Description><def:Origin Type="Derived" /></ItemDef><ItemDef DataType="text" Length="34" Name="DSTERM" OID="IT.DS.DSTERM" SASFieldName="DSTERM"><Description><TranslatedText xml:lang="en">Reported Term for the Disposition Event</TranslatedText></Description><CodeListRef CodeListOID="CL.TREASFF" /><def:Origin Type="CRF"><def:DocumentRef leafID="LF.blankcrf"><def:PDFPageRef PageRefs="6 16 18" Type="PhysicalRef" /></def:DocumentRef></def:Origin></ItemDef><ItemDef DataType="text" Length="21" Name="DSDECOD" OID="IT.DS.DSDECOD" SASFieldName="DSDECOD" def:CommentOID="COM.DSDECOD"><Description><TranslatedText xml:lang="en">Standardized Disposition Term</TranslatedText></Description><CodeListRef CodeListOID="CL.NCOMPLT" /><def:Origin Type="CRF"><def:DocumentRef leafID="LF.blankcrf"><def:PDFPageRef PageRefs="6 16 18" Type="PhysicalRef" /></def:DocumentRef></def:Origin></ItemDef><ItemDef DataType="text" Length="18" Name="DSCAT" OID="IT.DS.DSCAT" SASFieldName="DSCAT"><Description><TranslatedText xml:lang="en">Category for Disposition Event</TranslatedText></Description><CodeListRef CodeListOID="CL.DSCAT" /><def:Origin Type="Assigned" /></ItemDef><ItemDef DataType="text" Length="9" Name="EPOCH" OID="IT.DS.EPOCH" SASFieldName="EPOCH"><Description><TranslatedText xml:lang="en">Epoch</TranslatedText></Description><CodeListRef CodeListOID="CL.EPOCH" /><def:Origin Type="Assigned" /></ItemDef><ItemDef DataType="date" Name="DSSTDTC" OID="IT.DS.DSSTDTC" SASFieldName="DSSTDTC"><Description><TranslatedText xml:lang="en">Start Date/Time of Disposition Event</TranslatedText></Description><def:Origin Type="CRF"><def:DocumentRef leafID="LF.blankcrf"><def:PDFPageRef PageRefs="6 16 18" Type="PhysicalRef" /></def:DocumentRef></def:Origin></ItemDef><ItemDef DataType="integer" Length="3" Name="DSSTDY" OID="IT.DS.DSSTDY" SASFieldName="DSSTDY"><Description><TranslatedText xml:lang="en">Study Day of Start of Disposition Event</TranslatedText></Description><def:Origin Type="Derived" /></ItemDef><ItemDef DataType="text" Length="7" Name="STUDYID" OID="IT.EG.STUDYID" SASFieldName="STUDYID"><Description><TranslatedText xml:lang="en">Study Identifier</TranslatedText></Description><def:Origin Type="Protocol" /></ItemDef><ItemDef DataType="text" Length="2" Name="DOMAIN" OID="IT.EG.DOMAIN" SASFieldName="DOMAIN"><Description><TranslatedText xml:lang="en">Domain Abbreviation</TranslatedText></Description><CodeListRef CodeListOID="CL.EG.DOMAIN" /><def:Origin Type="Assigned" /></ItemDef><ItemDef DataType="text" Length="14" Name="USUBJID" OID="IT.EG.USUBJID" SASFieldName="USUBJID"><Description><TranslatedText xml:lang="en">Unique Subject Identifier</TranslatedText></Description><def:Origin Type="Derived" /></ItemDef><ItemDef DataType="integer" Length="2" Name="EGSEQ" OID="IT.EG.EGSEQ" SASFieldName="EGSEQ"><Description><TranslatedText xml:lang="en">Sequence Number</TranslatedText></Description><def:Origin Type="Derived" /></ItemDef><ItemDef DataType="text" Length="6" Name="EGSPID" OID="IT.EG.EGSPID" SASFieldName="EGSPID" def:CommentOID="COM.EGSPID"><Description><TranslatedText xml:lang="en">Sponsor-Defined Identifier</TranslatedText></Description><def:Origin Type="Assigned" /></ItemDef><ItemDef DataType="text" Length="6" Name="EGTESTCD" OID="IT.EG.EGTESTCD" SASFieldName="EGTESTCD"><Description><TranslatedText xml:lang="en">ECG Test or Examination Short Name</TranslatedText></Description><CodeListRef CodeListOID="CL.EGTESTCD" /><def:Origin Type="Assigned" /></ItemDef><ItemDef DataType="text" Length="40" Name="EGTEST" OID="IT.EG.EGTEST" SASFieldName="EGTEST"><Description><TranslatedText xml:lang="en">ECG Test or Examination Name</TranslatedText></Description><CodeListRef CodeListOID="CL.EGTEST" /><def:Origin Type="CRF"><def:DocumentRef leafID="LF.blankcrf"><def:PDFPageRef PageRefs="12" Type="PhysicalRef" /></def:DocumentRef></def:Origin></ItemDef><ItemDef DataType="text" Length="6" Name="EGPOS" OID="IT.EG.EGPOS" SASFieldName="EGPOS" def:CommentOID="COM.EGPOS"><Description><TranslatedText xml:lang="en">ECG Position of Subject</TranslatedText></Description><def:Origin Type="Protocol" /></ItemDef><ItemDef DataType="text" Length="15" Name="EGORRES" OID="IT.EG.EGORRES" SASFieldName="EGORRES"><Description><TranslatedText xml:lang="en">Result or Finding in Original Units</TranslatedText></Description><def:Origin Type="CRF"><def:DocumentRef leafID="LF.blankcrf"><def:PDFPageRef PageRefs="12" Type="PhysicalRef" /></def:DocumentRef></def:Origin><def:ValueListRef ValueListOID="VL.EG.EGORRES" /></ItemDef><ItemDef DataType="text" Length="4" Name="EGORRESU" OID="IT.EG.EGORRESU" SASFieldName="EGORRESU"><Description><TranslatedText xml:lang="en">Original Units</TranslatedText></Description><CodeListRef CodeListOID="CL.EGRESU" /><def:Origin Type="CRF"><def:DocumentRef leafID="LF.blankcrf"><def:PDFPageRef PageRefs="12" Type="PhysicalRef" /></def:DocumentRef></def:Origin></ItemDef><ItemDef DataType="text" Length="15" Name="EGSTRESC" OID="IT.EG.EGSTRESC" SASFieldName="EGSTRESC"><Description><TranslatedText xml:lang="en">Character Result/Finding in Std Format</TranslatedText></Description><def:Origin Type="Derived" /><def:ValueListRef ValueListOID="VL.EG.EGSTRESC" /></ItemDef><ItemDef DataType="float" Length="5" Name="EGSTRESN" OID="IT.EG.EGSTRESN" SASFieldName="EGSTRESN" SignificantDigits="1" def:DisplayFormat="5.1"><Description><TranslatedText xml:lang="en">Numeric Result/Finding in Standard Units</TranslatedText></Description><def:Origin Type="Derived" /></ItemDef><ItemDef DataType="text" Length="9" Name="EGSTRESU" OID="IT.EG.EGSTRESU" SASFieldName="EGSTRESU"><Description><TranslatedText xml:lang="en">Standard Units</TranslatedText></Description><CodeListRef CodeListOID="CL.EGRESU" /><def:Origin Type="Assigned" /></ItemDef><ItemDef DataType="text" Length="1" Name="EGBLFL" OID="IT.EG.EGBLFL" SASFieldName="EGBLFL"><Description><TranslatedText xml:lang="en">Baseline Flag</TranslatedText></Description><CodeListRef CodeListOID="CL.NY" /><def:Origin Type="Derived" /></ItemDef><ItemDef DataType="text" Length="1" Name="EGDRVFL" OID="IT.EG.EGDRVFL" SASFieldName="EGDRVFL"><Description><TranslatedText xml:lang="en">Derived Flag</TranslatedText></Description><CodeListRef CodeListOID="CL.NY" /><def:Origin Type="Derived" /></ItemDef><ItemDef DataType="text" Length="12" Name="EGEVAL" OID="IT.EG.EGEVAL" SASFieldName="EGEVAL" def:CommentOID="COM.EGEVAL"><Description><TranslatedText xml:lang="en">Evaluator</TranslatedText></Description><def:Origin Type="Assigned" /></ItemDef><ItemDef DataType="integer" Length="2" Name="VISITNUM" OID="IT.EG.VISITNUM" SASFieldName="VISITNUM" def:CommentOID="COM.EG.VISITNUM"><Description><TranslatedText xml:lang="en">Visit Number</TranslatedText></Description><def:Origin Type="Assigned" /></ItemDef><ItemDef DataType="text" Length="7" Name="VISIT" OID="IT.EG.VISIT" SASFieldName="VISIT"><Description><TranslatedText xml:lang="en">Visit Name</TranslatedText></Description><def:Origin Type="Assigned" /></ItemDef><ItemDef DataType="integer" Length="3" Name="VISITDY" OID="IT.EG.VISITDY" SASFieldName="VISITDY"><Description><TranslatedText xml:lang="en">Planned Study Day of Visit</TranslatedText></Description><def:Origin Type="Protocol" /></ItemDef><ItemDef DataType="date" Name="EGDTC" OID="IT.EG.EGDTC" SASFieldName="EGDTC"><Description><TranslatedText xml:lang="en">Date/Time of ECG</TranslatedText></Description><def:Origin Type="CRF"><def:DocumentRef leafID="LF.blankcrf"><def:PDFPageRef PageRefs="12" Type="PhysicalRef" /></def:DocumentRef></def:Origin></ItemDef><ItemDef DataType="integer" Length="3" Name="EGDY" OID="IT.EG.EGDY" SASFieldName="EGDY"><Description><TranslatedText xml:lang="en">Study Day of ECG</TranslatedText></Description><def:Origin Type="Derived" /></ItemDef><ItemDef DataType="text" Length="7" Name="STUDYID" OID="IT.EX.STUDYID" SASFieldName="STUDYID"><Description><TranslatedText xml:lang="en">Study Identifier</TranslatedText></Description><def:Origin Type="Protocol" /></ItemDef><ItemDef DataType="text" Length="2" Name="DOMAIN" OID="IT.EX.DOMAIN" SASFieldName="DOMAIN"><Description><TranslatedText xml:lang="en">Domain Abbreviation</TranslatedText></Description><CodeListRef CodeListOID="CL.EX.DOMAIN" /><def:Origin Type="Assigned" /></ItemDef><ItemDef DataType="text" Length="14" Name="USUBJID" OID="IT.EX.USUBJID" SASFieldName="USUBJID"><Description><TranslatedText xml:lang="en">Unique Subject Identifier</TranslatedText></Description><def:Origin Type="Derived" /></ItemDef><ItemDef DataType="integer" Length="1" Name="EXSEQ" OID="IT.EX.EXSEQ" SASFieldName="EXSEQ"><Description><TranslatedText xml:lang="en">Sequence Number</TranslatedText></Description><def:Origin Type="Derived" /></ItemDef><ItemDef DataType="text" Length="20" Name="EXTRT" OID="IT.EX.EXTRT" SASFieldName="EXTRT"><Description><TranslatedText xml:lang="en">Name of Actual Treatment</TranslatedText></Description><CodeListRef CodeListOID="CL.EXTRT" /><def:Origin Type="Derived" /></ItemDef><ItemDef DataType="integer" Length="2" Name="EXDOSE" OID="IT.EX.EXDOSE" SASFieldName="EXDOSE"><Description><TranslatedText xml:lang="en">Dose per Administration</TranslatedText></Description><def:Origin Type="Derived" /></ItemDef><ItemDef DataType="text" Length="2" Name="EXDOSU" OID="IT.EX.EXDOSU" SASFieldName="EXDOSU"><Description><TranslatedText xml:lang="en">Dose Units</TranslatedText></Description><def:Origin Type="Derived" /></ItemDef><ItemDef DataType="text" Length="7" Name="EXDOSFRM" OID="IT.EX.EXDOSFRM" SASFieldName="EXDOSFRM"><Description><TranslatedText xml:lang="en">Dose Form</TranslatedText></Description><CodeListRef CodeListOID="CL.FRM" /><def:Origin Type="CRF"><def:DocumentRef leafID="LF.blankcrf"><def:PDFPageRef PageRefs="20" Type="PhysicalRef" /></def:DocumentRef></def:Origin></ItemDef><ItemDef DataType="date" Name="EXSTDTC" OID="IT.EX.EXSTDTC" SASFieldName="EXSTDTC"><Description><TranslatedText xml:lang="en">Start Date/Time of Treatment</TranslatedText></Description><def:Origin Type="CRF"><def:DocumentRef leafID="LF.blankcrf"><def:PDFPageRef PageRefs="20" Type="PhysicalRef" /></def:DocumentRef></def:Origin></ItemDef><ItemDef DataType="date" Name="EXENDTC" OID="IT.EX.EXENDTC" SASFieldName="EXENDTC"><Description><TranslatedText xml:lang="en">End Date/Time of Treatment</TranslatedText></Description><def:Origin Type="CRF"><def:DocumentRef leafID="LF.blankcrf"><def:PDFPageRef PageRefs="20" Type="PhysicalRef" /></def:DocumentRef></def:Origin></ItemDef><ItemDef DataType="integer" Length="2" Name="EXSTDY" OID="IT.EX.EXSTDY" SASFieldName="EXSTDY"><Description><TranslatedText xml:lang="en">Study Day of Start of Treatment</TranslatedText></Description><def:Origin Type="Derived" /></ItemDef><ItemDef DataType="integer" Length="2" Name="EXENDY" OID="IT.EX.EXENDY" SASFieldName="EXENDY"><Description><TranslatedText xml:lang="en">Study Day of End of Treatment</TranslatedText></Description><def:Origin Type="Derived" /></ItemDef><ItemDef DataType="text" Length="7" Name="STUDYID" OID="IT.IE.STUDYID" SASFieldName="STUDYID"><Description><TranslatedText xml:lang="en">Study Identifier</TranslatedText></Description><def:Origin Type="Protocol" /></ItemDef><ItemDef DataType="text" Length="2" Name="DOMAIN" OID="IT.IE.DOMAIN" SASFieldName="DOMAIN"><Description><TranslatedText xml:lang="en">Domain Abbreviation</TranslatedText></Description><CodeListRef CodeListOID="CL.IE.DOMAIN" /><def:Origin Type="Assigned" /></ItemDef><ItemDef DataType="text" Length="14" Name="USUBJID" OID="IT.IE.USUBJID" SASFieldName="USUBJID"><Description><TranslatedText xml:lang="en">Unique Subject Identifier</TranslatedText></Description><def:Origin Type="Derived" /></ItemDef><ItemDef DataType="integer" Length="1" Name="IESEQ" OID="IT.IE.IESEQ" SASFieldName="IESEQ"><Description><TranslatedText xml:lang="en">Sequence Number</TranslatedText></Description><def:Origin Type="Derived" /></ItemDef><ItemDef DataType="text" Length="6" Name="IETESTCD" OID="IT.IE.IETESTCD" SASFieldName="IETESTCD"><Description><TranslatedText xml:lang="en">Inclusion/Exclusion Criterion Short Name</TranslatedText></Description><CodeListRef CodeListOID="CL.IETESTCD" /><def:Origin Type="Assigned" /></ItemDef><ItemDef DataType="text" Length="54" Name="IETEST" OID="IT.IE.IETEST" SASFieldName="IETEST"><Description><TranslatedText xml:lang="en">Inclusion/Exclusion Criterion</TranslatedText></Description><CodeListRef CodeListOID="CL.IETEST" /><def:Origin Type="CRF"><def:DocumentRef leafID="LF.blankcrf"><def:PDFPageRef PageRefs="4 5" Type="PhysicalRef" /></def:DocumentRef></def:Origin></ItemDef><ItemDef DataType="text" Length="9" Name="IECAT" OID="IT.IE.IECAT" SASFieldName="IECAT"><Description><TranslatedText xml:lang="en">Inclusion/Exclusion Category</TranslatedText></Description><def:Origin Type="CRF"><def:DocumentRef leafID="LF.blankcrf"><def:PDFPageRef PageRefs="4 5" Type="PhysicalRef" /></def:DocumentRef></def:Origin></ItemDef><ItemDef DataType="text" Length="1" Name="IEORRES" OID="IT.IE.IEORRES" SASFieldName="IEORRES"><Description><TranslatedText xml:lang="en">I/E Criterion Original Result</TranslatedText></Description><def:Origin Type="CRF"><def:DocumentRef leafID="LF.blankcrf"><def:PDFPageRef PageRefs="4 5" Type="PhysicalRef" /></def:DocumentRef></def:Origin><def:ValueListRef ValueListOID="VL.IE.IEORRES" /></ItemDef><ItemDef DataType="text" Length="1" Name="IESTRESC" OID="IT.IE.IESTRESC" SASFieldName="IESTRESC"><Description><TranslatedText xml:lang="en">I/E Criterion Result in Std Format</TranslatedText></Description><def:Origin Type="Derived" /></ItemDef><ItemDef DataType="integer" Length="1" Name="VISITNUM" OID="IT.IE.VISITNUM" SASFieldName="VISITNUM" def:CommentOID="COM.IE.VISITNUM"><Description><TranslatedText xml:lang="en">Visit Number</TranslatedText></Description><def:Origin Type="Assigned" /></ItemDef><ItemDef DataType="text" Length="6" Name="VISIT" OID="IT.IE.VISIT" SASFieldName="VISIT"><Description><TranslatedText xml:lang="en">Visit Name</TranslatedText></Description><def:Origin Type="Assigned" /></ItemDef><ItemDef DataType="date" Name="IEDTC" OID="IT.IE.IEDTC" SASFieldName="IEDTC"><Description><TranslatedText xml:lang="en">Date/Time of Collection</TranslatedText></Description><def:Origin Type="CRF"><def:DocumentRef leafID="LF.blankcrf"><def:PDFPageRef PageRefs="4 5" Type="PhysicalRef" /></def:DocumentRef></def:Origin></ItemDef><ItemDef DataType="text" Length="7" Name="STUDYID" OID="IT.LB.STUDYID" SASFieldName="STUDYID"><Description><TranslatedText xml:lang="en">Study Identifier</TranslatedText></Description><def:Origin Type="Protocol" /></ItemDef><ItemDef DataType="text" Length="2" Name="DOMAIN" OID="IT.LB.DOMAIN" SASFieldName="DOMAIN"><Description><TranslatedText xml:lang="en">Domain Abbreviation</TranslatedText></Description><CodeListRef CodeListOID="CL.LB.DOMAIN" /><def:Origin Type="Assigned" /></ItemDef><ItemDef DataType="text" Length="14" Name="USUBJID" OID="IT.LB.USUBJID" SASFieldName="USUBJID"><Description><TranslatedText xml:lang="en">Unique Subject Identifier</TranslatedText></Description><def:Origin Type="Derived" /></ItemDef><ItemDef DataType="integer" Length="2" Name="LBSEQ" OID="IT.LB.LBSEQ" SASFieldName="LBSEQ"><Description><TranslatedText xml:lang="en">Sequence Number</TranslatedText></Description><def:Origin Type="Derived" /></ItemDef><ItemDef DataType="text" Length="7" Name="LBREFID" OID="IT.LB.LBREFID" SASFieldName="LBREFID" def:CommentOID="COM.LBREFID"><Description><TranslatedText xml:lang="en">Specimen ID</TranslatedText></Description><def:Origin Type="eDT" /></ItemDef><ItemDef DataType="text" Length="7" Name="LBTESTCD" OID="IT.LB.LBTESTCD" SASFieldName="LBTESTCD"><Description><TranslatedText xml:lang="en">Lab Test or Examination Short Name</TranslatedText></Description><CodeListRef CodeListOID="CL.LBTESTCD" /><def:Origin Type="Assigned" /></ItemDef><ItemDef DataType="text" Length="22" Name="LBTEST" OID="IT.LB.LBTEST" SASFieldName="LBTEST"><Description><TranslatedText xml:lang="en">Lab Test or Examination Name</TranslatedText></Description><CodeListRef CodeListOID="CL.LBTEST" /><def:Origin Type="eDT" /></ItemDef><ItemDef DataType="text" Length="10" Name="LBCAT" OID="IT.LB.LBCAT" SASFieldName="LBCAT"><Description><TranslatedText xml:lang="en">Category for Lab Test</TranslatedText></Description><def:Origin Type="eDT" /></ItemDef><ItemDef DataType="text" Length="8" Name="LBORRES" OID="IT.LB.LBORRES" SASFieldName="LBORRES"><Description><TranslatedText xml:lang="en">Result or Finding in Original Units</TranslatedText></Description><def:Origin Type="eDT" /><def:ValueListRef ValueListOID="VL.LB.LBORRES" /></ItemDef><ItemDef DataType="text" Length="7" Name="LBORRESU" OID="IT.LB.LBORRESU" SASFieldName="LBORRESU"><Description><TranslatedText xml:lang="en">Original Units</TranslatedText></Description><CodeListRef CodeListOID="CL.LBRESU" /><def:Origin Type="eDT" /></ItemDef><ItemDef DataType="text" Length="8" Name="LBORNRLO" OID="IT.LB.LBORNRLO" SASFieldName="LBORNRLO"><Description><TranslatedText xml:lang="en">Reference Range Lower Limit in Orig Unit</TranslatedText></Description><def:Origin Type="eDT" /></ItemDef><ItemDef DataType="text" Length="8" Name="LBORNRHI" OID="IT.LB.LBORNRHI" SASFieldName="LBORNRHI"><Description><TranslatedText xml:lang="en">Reference Range Upper Limit in Orig Unit</TranslatedText></Description><def:Origin Type="eDT" /></ItemDef><ItemDef DataType="text" Length="8" Name="LBSTRESC" OID="IT.LB.LBSTRESC" SASFieldName="LBSTRESC"><Description><TranslatedText xml:lang="en">Character Result/Finding in Std Format</TranslatedText></Description><def:Origin Type="eDT" /></ItemDef><ItemDef DataType="float" Length="5" Name="LBSTRESN" OID="IT.LB.LBSTRESN" SASFieldName="LBSTRESN" SignificantDigits="2" def:DisplayFormat="5.2"><Description><TranslatedText xml:lang="en">Numeric Result/Finding in Standard Units</TranslatedText></Description><def:Origin Type="eDT" /></ItemDef><ItemDef DataType="text" Length="7" Name="LBSTRESU" OID="IT.LB.LBSTRESU" SASFieldName="LBSTRESU"><Description><TranslatedText xml:lang="en">Standard Units</TranslatedText></Description><def:Origin Type="eDT" /></ItemDef><ItemDef DataType="float" Length="4" Name="LBSTNRLO" OID="IT.LB.LBSTNRLO" SASFieldName="LBSTNRLO" SignificantDigits="2" def:DisplayFormat="4.2"><Description><TranslatedText xml:lang="en">Reference Range Lower Limit-Std Units</TranslatedText></Description><def:Origin Type="eDT" /></ItemDef><ItemDef DataType="float" Length="4" Name="LBSTNRHI" OID="IT.LB.LBSTNRHI" SASFieldName="LBSTNRHI" SignificantDigits="2" def:DisplayFormat="4.2"><Description><TranslatedText xml:lang="en">Reference Range Upper Limit-Std Units</TranslatedText></Description><def:Origin Type="eDT" /></ItemDef><ItemDef DataType="text" Length="19" Name="LBSTNRC" OID="IT.LB.LBSTNRC" SASFieldName="LBSTNRC"><Description><TranslatedText xml:lang="en">Reference Range for Char Rslt-Std Units</TranslatedText></Description><def:Origin Type="eDT" /></ItemDef><ItemDef DataType="text" Length="20" Name="LBNRIND" OID="IT.LB.LBNRIND" SASFieldName="LBNRIND"><Description><TranslatedText xml:lang="en">Reference Range Indicator</TranslatedText></Description><CodeListRef CodeListOID="CL.NRIND" /><def:Origin Type="Derived" /></ItemDef><ItemDef DataType="text" Length="5" Name="LBSPEC" OID="IT.LB.LBSPEC" SASFieldName="LBSPEC"><Description><TranslatedText xml:lang="en">Specimen Type</TranslatedText></Description><CodeListRef CodeListOID="CL.SPECTYPE" /><def:Origin Type="eDT" /></ItemDef><ItemDef DataType="text" Length="8" Name="LBMETHOD" OID="IT.LB.LBMETHOD" SASFieldName="LBMETHOD"><Description><TranslatedText xml:lang="en">Method of Test or Examination</TranslatedText></Description><CodeListRef CodeListOID="CL.METHOD" /><def:Origin Type="eDT" /></ItemDef><ItemDef DataType="text" Length="1" Name="LBBLFL" OID="IT.LB.LBBLFL" SASFieldName="LBBLFL"><Description><TranslatedText xml:lang="en">Baseline Flag</TranslatedText></Description><CodeListRef CodeListOID="CL.NY" /><def:Origin Type="Derived" /></ItemDef><ItemDef DataType="text" Length="1" Name="LBFAST" OID="IT.LB.LBFAST" SASFieldName="LBFAST"><Description><TranslatedText xml:lang="en">Fasting Status</TranslatedText></Description><CodeListRef CodeListOID="CL.NY" /><def:Origin Type="eDT" /></ItemDef><ItemDef DataType="integer" Length="2" Name="VISITNUM" OID="IT.LB.VISITNUM" SASFieldName="VISITNUM"><Description><TranslatedText xml:lang="en">Visit Number</TranslatedText></Description><def:Origin Type="eDT" /></ItemDef><ItemDef DataType="text" Length="7" Name="VISIT" OID="IT.LB.VISIT" SASFieldName="VISIT"><Description><TranslatedText xml:lang="en">Visit Name</TranslatedText></Description><def:Origin Type="eDT" /></ItemDef><ItemDef DataType="integer" Length="3" Name="VISITDY" OID="IT.LB.VISITDY" SASFieldName="VISITDY"><Description><TranslatedText xml:lang="en">Planned Study Day of Visit</TranslatedText></Description><def:Origin Type="Protocol" /></ItemDef><ItemDef DataType="datetime" Name="LBDTC" OID="IT.LB.LBDTC" SASFieldName="LBDTC"><Description><TranslatedText xml:lang="en">Date/Time of Specimen Collection</TranslatedText></Description><def:Origin Type="eDT" /></ItemDef><ItemDef DataType="integer" Length="3" Name="LBDY" OID="IT.LB.LBDY" SASFieldName="LBDY"><Description><TranslatedText xml:lang="en">Study Day of Specimen Collection</TranslatedText></Description><def:Origin Type="Derived" /></ItemDef><ItemDef DataType="text" Length="7" Name="STUDYID" OID="IT.MH.STUDYID" SASFieldName="STUDYID"><Description><TranslatedText xml:lang="en">Study Identifier</TranslatedText></Description><def:Origin Type="Protocol" /></ItemDef><ItemDef DataType="text" Length="2" Name="DOMAIN" OID="IT.MH.DOMAIN" SASFieldName="DOMAIN"><Description><TranslatedText xml:lang="en">Domain Abbreviation</TranslatedText></Description><CodeListRef CodeListOID="CL.MH.DOMAIN" /><def:Origin Type="Assigned" /></ItemDef><ItemDef DataType="text" Length="14" Name="USUBJID" OID="IT.MH.USUBJID" SASFieldName="USUBJID"><Description><TranslatedText xml:lang="en">Unique Subject Identifier</TranslatedText></Description><def:Origin Type="Derived" /></ItemDef><ItemDef DataType="integer" Length="1" Name="MHSEQ" OID="IT.MH.MHSEQ" SASFieldName="MHSEQ"><Description><TranslatedText xml:lang="en">Sequence Number</TranslatedText></Description><def:Origin Type="Derived" /></ItemDef><ItemDef DataType="text" Length="169" Name="MHTERM" OID="IT.MH.MHTERM" SASFieldName="MHTERM"><Description><TranslatedText xml:lang="en">Reported Term for the Medical History</TranslatedText></Description><def:Origin Type="CRF"><def:DocumentRef leafID="LF.blankcrf"><def:PDFPageRef PageRefs="7 8" Type="PhysicalRef" /></def:DocumentRef></def:Origin></ItemDef><ItemDef DataType="text" Length="28" Name="MHCAT" OID="IT.MH.MHCAT" SASFieldName="MHCAT"><Description><TranslatedText xml:lang="en">Category for Medical History</TranslatedText></Description><CodeListRef CodeListOID="CL.MHCAT" /><def:Origin Type="CRF"><def:DocumentRef leafID="LF.blankcrf"><def:PDFPageRef PageRefs="7 8" Type="PhysicalRef" /></def:DocumentRef></def:Origin></ItemDef><ItemDef DataType="text" Length="2" Name="MHPRESP" OID="IT.MH.MHPRESP" SASFieldName="MHPRESP"><Description><TranslatedText xml:lang="en">Medical History Event Pre-Specified</TranslatedText></Description><CodeListRef CodeListOID="CL.NY" /><def:Origin Type="Assigned" /></ItemDef><ItemDef DataType="text" Length="2" Name="MHOCCUR" OID="IT.MH.MHOCCUR" SASFieldName="MHOCCUR"><Description><TranslatedText xml:lang="en">Medical History Occurrence</TranslatedText></Description><CodeListRef CodeListOID="CL.NY" /><def:Origin Type="Assigned" /></ItemDef><ItemDef DataType="text" Length="23" Name="MHBODSYS" OID="IT.MH.MHBODSYS" SASFieldName="MHBODSYS" def:CommentOID="COM.MHBODSYS"><Description><TranslatedText xml:lang="en">Body System or Organ Class</TranslatedText></Description><CodeListRef CodeListOID="CL.MHBODSYS" /><def:Origin Type="Assigned" /></ItemDef><ItemDef DataType="date" Name="MHDTC" OID="IT.MH.MHDTC" SASFieldName="MHDTC"><Description><TranslatedText xml:lang="en">Date/Time of History Collection</TranslatedText></Description><def:Origin Type="CRF"><def:DocumentRef leafID="LF.blankcrf"><def:PDFPageRef PageRefs="7 8" Type="PhysicalRef" /></def:DocumentRef></def:Origin></ItemDef><ItemDef DataType="date" Name="MHSTDTC" OID="IT.MH.MHSTDTC" SASFieldName="MHSTDTC"><Description><TranslatedText xml:lang="en">Start Date/Time of Medical History Event</TranslatedText></Description><def:Origin Type="CRF"><def:DocumentRef leafID="LF.blankcrf"><def:PDFPageRef PageRefs="7 8" Type="PhysicalRef" /></def:DocumentRef></def:Origin></ItemDef><ItemDef DataType="text" Length="30" Name="MHENRF" OID="IT.MH.MHENRF" SASFieldName="MHENRF" def:CommentOID="COM.MHENRF"><Description><TranslatedText xml:lang="en">End Relative to Reference Period</TranslatedText></Description><CodeListRef CodeListOID="CL.MHENRF" /><def:Origin Type="CRF"><def:DocumentRef leafID="LF.blankcrf"><def:PDFPageRef PageRefs="8" Type="PhysicalRef" /></def:DocumentRef></def:Origin></ItemDef><ItemDef DataType="text" Length="7" Name="STUDYID" OID="IT.PE.STUDYID" SASFieldName="STUDYID"><Description><TranslatedText xml:lang="en">Study Identifier</TranslatedText></Description><def:Origin Type="Protocol" /></ItemDef><ItemDef DataType="text" Length="2" Name="DOMAIN" OID="IT.PE.DOMAIN" SASFieldName="DOMAIN"><Description><TranslatedText xml:lang="en">Domain Abbreviation</TranslatedText></Description><CodeListRef CodeListOID="CL.PE.DOMAIN" /><def:Origin Type="Assigned" /></ItemDef><ItemDef DataType="text" Length="14" Name="USUBJID" OID="IT.PE.USUBJID" SASFieldName="USUBJID"><Description><TranslatedText xml:lang="en">Unique Subject Identifier</TranslatedText></Description><def:Origin Type="Derived" /></ItemDef><ItemDef DataType="integer" Length="2" Name="PESEQ" OID="IT.PE.PESEQ" SASFieldName="PESEQ"><Description><TranslatedText xml:lang="en">Sequence Number</TranslatedText></Description><def:Origin Type="Derived" /></ItemDef><ItemDef DataType="text" Length="4" Name="PETESTCD" OID="IT.PE.PETESTCD" SASFieldName="PETESTCD"><Description><TranslatedText xml:lang="en">Body System Examined Short Name</TranslatedText></Description><CodeListRef CodeListOID="CL.PETESTCD" /><def:Origin Type="Assigned" /></ItemDef><ItemDef DataType="text" Length="29" Name="PETEST" OID="IT.PE.PETEST" SASFieldName="PETEST"><Description><TranslatedText xml:lang="en">Body System Examined</TranslatedText></Description><CodeListRef CodeListOID="CL.PETEST" /><def:Origin Type="CRF"><def:DocumentRef leafID="LF.blankcrf"><def:PDFPageRef PageRefs="10" Type="PhysicalRef" /></def:DocumentRef></def:Origin></ItemDef><ItemDef DataType="text" Length="36" Name="PEORRES" OID="IT.PE.PEORRES" SASFieldName="PEORRES"><Description><TranslatedText xml:lang="en">Verbatim Examination Finding</TranslatedText></Description><def:Origin Type="CRF"><def:DocumentRef leafID="LF.blankcrf"><def:PDFPageRef PageRefs="10" Type="PhysicalRef" /></def:DocumentRef></def:Origin><def:ValueListRef ValueListOID="VL.PE.PEORRES" /></ItemDef><ItemDef DataType="text" Length="26" Name="PESTRESC" OID="IT.PE.PESTRESC" SASFieldName="PESTRESC"><Description><TranslatedText xml:lang="en">Character Result/Finding in Std Format</TranslatedText></Description><def:Origin Type="Derived" /></ItemDef><ItemDef DataType="integer" Length="2" Name="VISITNUM" OID="IT.PE.VISITNUM" SASFieldName="VISITNUM" def:CommentOID="COM.PE.VISITNUM"><Description><TranslatedText xml:lang="en">Visit Number</TranslatedText></Description><def:Origin Type="Assigned" /></ItemDef><ItemDef DataType="text" Length="7" Name="VISIT" OID="IT.PE.VISIT" SASFieldName="VISIT"><Description><TranslatedText xml:lang="en">Visit Name</TranslatedText></Description><def:Origin Type="Assigned" /></ItemDef><ItemDef DataType="integer" Length="3" Name="VISITDY" OID="IT.PE.VISITDY" SASFieldName="VISITDY"><Description><TranslatedText xml:lang="en">Planned Study Day of Visit</TranslatedText></Description><def:Origin Type="Protocol" /></ItemDef><ItemDef DataType="date" Name="PEDTC" OID="IT.PE.PEDTC" SASFieldName="PEDTC"><Description><TranslatedText xml:lang="en">Date/Time of Examination</TranslatedText></Description><def:Origin Type="CRF"><def:DocumentRef leafID="LF.blankcrf"><def:PDFPageRef PageRefs="10" Type="PhysicalRef" /></def:DocumentRef></def:Origin></ItemDef><ItemDef DataType="integer" Length="3" Name="PEDY" OID="IT.PE.PEDY" SASFieldName="PEDY"><Description><TranslatedText xml:lang="en">Study Day of Examination</TranslatedText></Description><def:Origin Type="Derived" /></ItemDef><ItemDef DataType="text" Length="7" Name="STUDYID" OID="IT.QSCG.STUDYID" SASFieldName="STUDYID"><Description><TranslatedText xml:lang="en">Study Identifier</TranslatedText></Description><def:Origin Type="Protocol" /></ItemDef><ItemDef DataType="text" Length="2" Name="DOMAIN" OID="IT.QSCG.DOMAIN" SASFieldName="DOMAIN"><Description><TranslatedText xml:lang="en">Domain Abbreviation</TranslatedText></Description><CodeListRef CodeListOID="CL.QS.DOMAIN" /><def:Origin Type="Assigned" /></ItemDef><ItemDef DataType="text" Length="14" Name="USUBJID" OID="IT.QSCG.USUBJID" SASFieldName="USUBJID"><Description><TranslatedText xml:lang="en">Unique Subject Identifier</TranslatedText></Description><def:Origin Type="Derived" /></ItemDef><ItemDef DataType="integer" Length="3" Name="QSSEQ" OID="IT.QSCG.QSSEQ" SASFieldName="QSSEQ"><Description><TranslatedText xml:lang="en">Sequence Number</TranslatedText></Description><def:Origin Type="Derived" /></ItemDef><ItemDef DataType="text" Length="7" Name="QSTESTCD" OID="IT.QSCG.QSTESTCD" SASFieldName="QSTESTCD"><Description><TranslatedText xml:lang="en">Question Short Name</TranslatedText></Description><CodeListRef CodeListOID="CL.QSTESTCD" /><def:Origin Type="Assigned" /></ItemDef><ItemDef DataType="text" Length="37" Name="QSTEST" OID="IT.QSCG.QSTEST" SASFieldName="QSTEST"><Description><TranslatedText xml:lang="en">Question Name</TranslatedText></Description><CodeListRef CodeListOID="CL.QSTEST" /><def:Origin Type="CRF"><def:DocumentRef leafID="LF.blankcrf"><def:PDFPageRef PageRefs="17" Type="PhysicalRef" /></def:DocumentRef></def:Origin></ItemDef><ItemDef DataType="text" Length="50" Name="QSCAT" OID="IT.QSCG.QSCAT" SASFieldName="QSCAT"><Description><TranslatedText xml:lang="en">Category of Question</TranslatedText></Description><def:Origin Type="CRF"><def:DocumentRef leafID="LF.blankcrf"><def:PDFPageRef PageRefs="17" Type="PhysicalRef" /></def:DocumentRef></def:Origin></ItemDef><ItemDef DataType="text" Length="20" Name="QSORRES" OID="IT.QSCG.QSORRES" SASFieldName="QSORRES"><Description><TranslatedText xml:lang="en">Finding in Original Units</TranslatedText></Description><def:Origin Type="CRF"><def:DocumentRef leafID="LF.blankcrf"><def:PDFPageRef PageRefs="17" Type="PhysicalRef" /></def:DocumentRef></def:Origin></ItemDef><ItemDef DataType="text" Length="2" Name="QSSTRESC" OID="IT.QSCG.QSSTRESC" SASFieldName="QSSTRESC"><Description><TranslatedText xml:lang="en">Character Result/Finding in Std Format</TranslatedText></Description><def:Origin Type="Derived" /></ItemDef><ItemDef DataType="integer" Length="2" Name="QSSTRESN" OID="IT.QSCG.QSSTRESN" SASFieldName="QSSTRESN"><Description><TranslatedText xml:lang="en">Numeric Finding in Standard Units</TranslatedText></Description><def:Origin Type="Derived" /></ItemDef><ItemDef DataType="integer" Length="2" Name="VISITNUM" OID="IT.QSCG.VISITNUM" SASFieldName="VISITNUM" def:CommentOID="COM.QS.VISITNUM"><Description><TranslatedText xml:lang="en">Visit Number</TranslatedText></Description><def:Origin Type="Assigned" /></ItemDef><ItemDef DataType="text" Length="8" Name="VISIT" OID="IT.QSCG.VISIT" SASFieldName="VISIT"><Description><TranslatedText xml:lang="en">Visit Name</TranslatedText></Description><def:Origin Type="Assigned" /></ItemDef><ItemDef DataType="integer" Length="3" Name="VISITDY" OID="IT.QSCG.VISITDY" SASFieldName="VISITDY"><Description><TranslatedText xml:lang="en">Planned Study Day of Visit</TranslatedText></Description><def:Origin Type="Protocol" /></ItemDef><ItemDef DataType="date" Name="QSDTC" OID="IT.QSCG.QSDTC" SASFieldName="QSDTC"><Description><TranslatedText xml:lang="en">Date/Time of Finding</TranslatedText></Description><def:Origin Type="CRF"><def:DocumentRef leafID="LF.blankcrf"><def:PDFPageRef PageRefs="17" Type="PhysicalRef" /></def:DocumentRef></def:Origin></ItemDef><ItemDef DataType="integer" Length="3" Name="QSDY" OID="IT.QSCG.QSDY" SASFieldName="QSDY"><Description><TranslatedText xml:lang="en">Study Day of Finding</TranslatedText></Description><def:Origin Type="Derived" /></ItemDef><ItemDef DataType="text" Length="7" Name="STUDYID" OID="IT.QSCS.STUDYID" SASFieldName="STUDYID"><Description><TranslatedText xml:lang="en">Study Identifier</TranslatedText></Description><def:Origin Type="Protocol" /></ItemDef><ItemDef DataType="text" Length="2" Name="DOMAIN" OID="IT.QSCS.DOMAIN" SASFieldName="DOMAIN"><Description><TranslatedText xml:lang="en">Domain Abbreviation</TranslatedText></Description><CodeListRef CodeListOID="CL.QS.DOMAIN" /><def:Origin Type="Assigned" /></ItemDef><ItemDef DataType="text" Length="14" Name="USUBJID" OID="IT.QSCS.USUBJID" SASFieldName="USUBJID"><Description><TranslatedText xml:lang="en">Unique Subject Identifier</TranslatedText></Description><def:Origin Type="Derived" /></ItemDef><ItemDef DataType="integer" Length="3" Name="QSSEQ" OID="IT.QSCS.QSSEQ" SASFieldName="QSSEQ"><Description><TranslatedText xml:lang="en">Sequence Number</TranslatedText></Description><def:Origin Type="Derived" /></ItemDef><ItemDef DataType="text" Length="7" Name="QSTESTCD" OID="IT.QSCS.QSTESTCD" SASFieldName="QSTESTCD"><Description><TranslatedText xml:lang="en">Question Short Name</TranslatedText></Description><CodeListRef CodeListOID="CL.QSTESTCD" /><def:Origin Type="Assigned" /></ItemDef><ItemDef DataType="text" Length="37" Name="QSTEST" OID="IT.QSCS.QSTEST" SASFieldName="QSTEST"><Description><TranslatedText xml:lang="en">Question Name</TranslatedText></Description><CodeListRef CodeListOID="CL.QSTEST" /><def:Origin Type="CRF"><def:DocumentRef leafID="LF.blankcrf"><def:PDFPageRef PageRefs="17" Type="PhysicalRef" /></def:DocumentRef></def:Origin></ItemDef><ItemDef DataType="text" Length="50" Name="QSCAT" OID="IT.QSCS.QSCAT" SASFieldName="QSCAT"><Description><TranslatedText xml:lang="en">Category of Question</TranslatedText></Description><def:Origin Type="CRF"><def:DocumentRef leafID="LF.blankcrf"><def:PDFPageRef PageRefs="17" Type="PhysicalRef" /></def:DocumentRef></def:Origin></ItemDef><ItemDef DataType="text" Length="40" Name="QSSCAT" OID="IT.QSCS.QSSCAT" SASFieldName="QSSCAT"><Description><TranslatedText xml:lang="en">Subcategory for Question</TranslatedText></Description><def:Origin Type="CRF"><def:DocumentRef leafID="LF.blankcrf"><def:PDFPageRef PageRefs="14 15" Type="PhysicalRef" /></def:DocumentRef></def:Origin></ItemDef><ItemDef DataType="text" Length="20" Name="QSORRES" OID="IT.QSCS.QSORRES" SASFieldName="QSORRES"><Description><TranslatedText xml:lang="en">Finding in Original Units</TranslatedText></Description><def:Origin Type="CRF"><def:DocumentRef leafID="LF.blankcrf"><def:PDFPageRef PageRefs="17" Type="PhysicalRef" /></def:DocumentRef></def:Origin></ItemDef><ItemDef DataType="text" Length="2" Name="QSSTRESC" OID="IT.QSCS.QSSTRESC" SASFieldName="QSSTRESC"><Description><TranslatedText xml:lang="en">Character Result/Finding in Std Format</TranslatedText></Description><def:Origin Type="Derived" /></ItemDef><ItemDef DataType="integer" Length="2" Name="QSSTRESN" OID="IT.QSCS.QSSTRESN" SASFieldName="QSSTRESN"><Description><TranslatedText xml:lang="en">Numeric Finding in Standard Units</TranslatedText></Description><def:Origin Type="Derived" /></ItemDef><ItemDef DataType="text" Length="1" Name="QSBLFL" OID="IT.QSCS.QSBLFL" SASFieldName="QSBLFL"><Description><TranslatedText xml:lang="en">Baseline Flag</TranslatedText></Description><CodeListRef CodeListOID="CL.NY" /><def:Origin Type="Derived" /></ItemDef><ItemDef DataType="integer" Length="2" Name="VISITNUM" OID="IT.QSCS.VISITNUM" SASFieldName="VISITNUM" def:CommentOID="COM.QS.VISITNUM"><Description><TranslatedText xml:lang="en">Visit Number</TranslatedText></Description><def:Origin Type="Assigned" /></ItemDef><ItemDef DataType="text" Length="8" Name="VISIT" OID="IT.QSCS.VISIT" SASFieldName="VISIT"><Description><TranslatedText xml:lang="en">Visit Name</TranslatedText></Description><def:Origin Type="Assigned" /></ItemDef><ItemDef DataType="integer" Length="3" Name="VISITDY" OID="IT.QSCS.VISITDY" SASFieldName="VISITDY"><Description><TranslatedText xml:lang="en">Planned Study Day of Visit</TranslatedText></Description><def:Origin Type="Protocol" /></ItemDef><ItemDef DataType="date" Name="QSDTC" OID="IT.QSCS.QSDTC" SASFieldName="QSDTC"><Description><TranslatedText xml:lang="en">Date/Time of Finding</TranslatedText></Description><def:Origin Type="CRF"><def:DocumentRef leafID="LF.blankcrf"><def:PDFPageRef PageRefs="17" Type="PhysicalRef" /></def:DocumentRef></def:Origin></ItemDef><ItemDef DataType="integer" Length="3" Name="QSDY" OID="IT.QSCS.QSDY" SASFieldName="QSDY"><Description><TranslatedText xml:lang="en">Study Day of Finding</TranslatedText></Description><def:Origin Type="Derived" /></ItemDef><ItemDef DataType="text" Length="20" Name="QSEVLINT" OID="IT.QSCS.QSEVLINT" SASFieldName="QSEVLINT"><Description><TranslatedText xml:lang="en">Evaluation Interval</TranslatedText></Description><def:Origin Type="CRF"><def:DocumentRef leafID="LF.blankcrf"><def:PDFPageRef PageRefs="14" Type="PhysicalRef" /></def:DocumentRef></def:Origin></ItemDef><ItemDef DataType="text" Length="7" Name="STUDYID" OID="IT.QSMM.STUDYID" SASFieldName="STUDYID"><Description><TranslatedText xml:lang="en">Study Identifier</TranslatedText></Description><def:Origin Type="Protocol" /></ItemDef><ItemDef DataType="text" Length="2" Name="DOMAIN" OID="IT.QSMM.DOMAIN" SASFieldName="DOMAIN"><Description><TranslatedText xml:lang="en">Domain Abbreviation</TranslatedText></Description><CodeListRef CodeListOID="CL.QS.DOMAIN" /><def:Origin Type="Assigned" /></ItemDef><ItemDef DataType="text" Length="14" Name="USUBJID" OID="IT.QSMM.USUBJID" SASFieldName="USUBJID"><Description><TranslatedText xml:lang="en">Unique Subject Identifier</TranslatedText></Description><def:Origin Type="Derived" /></ItemDef><ItemDef DataType="integer" Length="3" Name="QSSEQ" OID="IT.QSMM.QSSEQ" SASFieldName="QSSEQ"><Description><TranslatedText xml:lang="en">Sequence Number</TranslatedText></Description><def:Origin Type="Derived" /></ItemDef><ItemDef DataType="text" Length="7" Name="QSTESTCD" OID="IT.QSMM.QSTESTCD" SASFieldName="QSTESTCD"><Description><TranslatedText xml:lang="en">Question Short Name</TranslatedText></Description><CodeListRef CodeListOID="CL.QSTESTCD" /><def:Origin Type="Assigned" /></ItemDef><ItemDef DataType="text" Length="37" Name="QSTEST" OID="IT.QSMM.QSTEST" SASFieldName="QSTEST"><Description><TranslatedText xml:lang="en">Question Name</TranslatedText></Description><CodeListRef CodeListOID="CL.QSTEST" /><def:Origin Type="CRF"><def:DocumentRef leafID="LF.blankcrf"><def:PDFPageRef PageRefs="17" Type="PhysicalRef" /></def:DocumentRef></def:Origin></ItemDef><ItemDef DataType="text" Length="50" Name="QSCAT" OID="IT.QSMM.QSCAT" SASFieldName="QSCAT"><Description><TranslatedText xml:lang="en">Category of Question</TranslatedText></Description><def:Origin Type="CRF"><def:DocumentRef leafID="LF.blankcrf"><def:PDFPageRef PageRefs="17" Type="PhysicalRef" /></def:DocumentRef></def:Origin></ItemDef><ItemDef DataType="text" Length="20" Name="QSORRES" OID="IT.QSMM.QSORRES" SASFieldName="QSORRES"><Description><TranslatedText xml:lang="en">Finding in Original Units</TranslatedText></Description><def:Origin Type="CRF"><def:DocumentRef leafID="LF.blankcrf"><def:PDFPageRef PageRefs="17" Type="PhysicalRef" /></def:DocumentRef></def:Origin></ItemDef><ItemDef DataType="text" Length="2" Name="QSSTRESC" OID="IT.QSMM.QSSTRESC" SASFieldName="QSSTRESC"><Description><TranslatedText xml:lang="en">Character Result/Finding in Std Format</TranslatedText></Description><def:Origin Type="Derived" /></ItemDef><ItemDef DataType="integer" Length="2" Name="QSSTRESN" OID="IT.QSMM.QSSTRESN" SASFieldName="QSSTRESN"><Description><TranslatedText xml:lang="en">Numeric Finding in Standard Units</TranslatedText></Description><def:Origin Type="Derived" /></ItemDef><ItemDef DataType="text" Length="1" Name="QSBLFL" OID="IT.QSMM.QSBLFL" SASFieldName="QSBLFL"><Description><TranslatedText xml:lang="en">Baseline Flag</TranslatedText></Description><CodeListRef CodeListOID="CL.NY" /><def:Origin Type="Derived" /></ItemDef><ItemDef DataType="integer" Length="2" Name="VISITNUM" OID="IT.QSMM.VISITNUM" SASFieldName="VISITNUM" def:CommentOID="COM.QS.VISITNUM"><Description><TranslatedText xml:lang="en">Visit Number</TranslatedText></Description><def:Origin Type="Assigned" /></ItemDef><ItemDef DataType="text" Length="8" Name="VISIT" OID="IT.QSMM.VISIT" SASFieldName="VISIT"><Description><TranslatedText xml:lang="en">Visit Name</TranslatedText></Description><def:Origin Type="Assigned" /></ItemDef><ItemDef DataType="integer" Length="3" Name="VISITDY" OID="IT.QSMM.VISITDY" SASFieldName="VISITDY"><Description><TranslatedText xml:lang="en">Planned Study Day of Visit</TranslatedText></Description><def:Origin Type="Protocol" /></ItemDef><ItemDef DataType="date" Name="QSDTC" OID="IT.QSMM.QSDTC" SASFieldName="QSDTC"><Description><TranslatedText xml:lang="en">Date/Time of Finding</TranslatedText></Description><def:Origin Type="CRF"><def:DocumentRef leafID="LF.blankcrf"><def:PDFPageRef PageRefs="17" Type="PhysicalRef" /></def:DocumentRef></def:Origin></ItemDef><ItemDef DataType="integer" Length="3" Name="QSDY" OID="IT.QSMM.QSDY" SASFieldName="QSDY"><Description><TranslatedText xml:lang="en">Study Day of Finding</TranslatedText></Description><def:Origin Type="Derived" /></ItemDef><ItemDef DataType="text" Length="7" Name="STUDYID" OID="IT.RELREC.STUDYID" SASFieldName="STUDYID"><Description><TranslatedText xml:lang="en">Study Identifier</TranslatedText></Description><def:Origin Type="Protocol" /></ItemDef><ItemDef DataType="text" Length="2" Name="RDOMAIN" OID="IT.RELREC.RDOMAIN" SASFieldName="RDOMAIN"><Description><TranslatedText xml:lang="en">Related Domain Abbreviation</TranslatedText></Description><def:Origin Type="Derived" /></ItemDef><ItemDef DataType="text" Length="14" Name="USUBJID" OID="IT.RELREC.USUBJID" SASFieldName="USUBJID"><Description><TranslatedText xml:lang="en">Unique Subject Identifier</TranslatedText></Description><def:Origin Type="Derived" /></ItemDef><ItemDef DataType="text" Length="8" Name="IDVAR" OID="IT.RELREC.IDVAR" SASFieldName="IDVAR" def:CommentOID="COM.IDVAR"><Description><TranslatedText xml:lang="en">Identifying Variable</TranslatedText></Description><def:Origin Type="Assigned" /></ItemDef><ItemDef DataType="text" Length="2" Name="IDVARVAL" OID="IT.RELREC.IDVARVAL" SASFieldName="IDVARVAL" def:CommentOID="COM.IDVARVAL"><Description><TranslatedText xml:lang="en">Identifying Variable Value</TranslatedText></Description><def:Origin Type="Assigned" /></ItemDef><ItemDef DataType="text" Length="4" Name="RELTYPE" OID="IT.RELREC.RELTYPE" SASFieldName="RELTYPE" def:CommentOID="COM.RELTYPE"><Description><TranslatedText xml:lang="en">Relationship Type</TranslatedText></Description><def:Origin Type="Assigned" /></ItemDef><ItemDef DataType="text" Length="10" Name="RELID" OID="IT.RELREC.RELID" SASFieldName="RELID"><Description><TranslatedText xml:lang="en">Relationship Identifier</TranslatedText></Description><def:Origin Type="Derived" /></ItemDef><ItemDef DataType="text" Length="7" Name="STUDYID" OID="IT.SC.STUDYID" SASFieldName="STUDYID"><Description><TranslatedText xml:lang="en">Study Identifier</TranslatedText></Description><def:Origin Type="Protocol" /></ItemDef><ItemDef DataType="text" Length="2" Name="DOMAIN" OID="IT.SC.DOMAIN" SASFieldName="DOMAIN"><Description><TranslatedText xml:lang="en">Domain Abbreviation</TranslatedText></Description><CodeListRef CodeListOID="CL.SC.DOMAIN" /><def:Origin Type="Assigned" /></ItemDef><ItemDef DataType="text" Length="14" Name="USUBJID" OID="IT.SC.USUBJID" SASFieldName="USUBJID"><Description><TranslatedText xml:lang="en">Unique Subject Identifier</TranslatedText></Description><def:Origin Type="Derived" /></ItemDef><ItemDef DataType="integer" Length="1" Name="SCSEQ" OID="IT.SC.SCSEQ" SASFieldName="SCSEQ"><Description><TranslatedText xml:lang="en">Sequence Number</TranslatedText></Description><def:Origin Type="Derived" /></ItemDef><ItemDef DataType="text" Length="8" Name="SCTESTCD" OID="IT.SC.SCTESTCD" SASFieldName="SCTESTCD"><Description><TranslatedText xml:lang="en">Subject Characteristic Short Name</TranslatedText></Description><CodeListRef CodeListOID="CL.SCTESTCD" /><def:Origin Type="Assigned" /></ItemDef><ItemDef DataType="text" Length="16" Name="SCTEST" OID="IT.SC.SCTEST" SASFieldName="SCTEST"><Description><TranslatedText xml:lang="en">Subject Characteristic</TranslatedText></Description><CodeListRef CodeListOID="CL.SCTEST" /><def:Origin Type="CRF"><def:DocumentRef leafID="LF.blankcrf"><def:PDFPageRef PageRefs="6" Type="PhysicalRef" /></def:DocumentRef></def:Origin></ItemDef><ItemDef DataType="text" Length="24" Name="SCORRES" OID="IT.SC.SCORRES" SASFieldName="SCORRES"><Description><TranslatedText xml:lang="en">Result or Finding in Original Units</TranslatedText></Description><def:Origin Type="CRF"><def:DocumentRef leafID="LF.blankcrf"><def:PDFPageRef PageRefs="3 6" Type="PhysicalRef" /></def:DocumentRef></def:Origin><def:ValueListRef ValueListOID="VL.SC.SCORRES" /></ItemDef><ItemDef DataType="text" Length="24" Name="SCSTRESC" OID="IT.SC.SCSTRESC" SASFieldName="SCSTRESC"><Description><TranslatedText xml:lang="en">Character Result/Finding in Std Format</TranslatedText></Description><def:Origin Type="Derived" /></ItemDef><ItemDef DataType="date" Name="SCDTC" OID="IT.SC.SCDTC" SASFieldName="SCDTC"><Description><TranslatedText xml:lang="en">Date/Time of Collection</TranslatedText></Description><def:Origin Type="CRF"><def:DocumentRef leafID="LF.blankcrf"><def:PDFPageRef PageRefs="6" Type="PhysicalRef" /></def:DocumentRef></def:Origin></ItemDef><ItemDef DataType="integer" Length="3" Name="SCDY" OID="IT.SC.SCDY" SASFieldName="SCDY"><Description><TranslatedText xml:lang="en">Study Day of Examination</TranslatedText></Description><def:Origin Type="Derived" /></ItemDef><ItemDef DataType="text" Length="7" Name="STUDYID" OID="IT.SE.STUDYID" SASFieldName="STUDYID"><Description><TranslatedText xml:lang="en">Study Identifier</TranslatedText></Description><def:Origin Type="Protocol" /></ItemDef><ItemDef DataType="text" Length="2" Name="DOMAIN" OID="IT.SE.DOMAIN" SASFieldName="DOMAIN"><Description><TranslatedText xml:lang="en">Domain Abbreviation</TranslatedText></Description><CodeListRef CodeListOID="CL.SE.DOMAIN" /><def:Origin Type="Assigned" /></ItemDef><ItemDef DataType="text" Length="14" Name="USUBJID" OID="IT.SE.USUBJID" SASFieldName="USUBJID"><Description><TranslatedText xml:lang="en">Unique Subject Identifier</TranslatedText></Description><def:Origin Type="Derived" /></ItemDef><ItemDef DataType="integer" Length="1" Name="SESEQ" OID="IT.SE.SESEQ" SASFieldName="SESEQ"><Description><TranslatedText xml:lang="en">Sequence Number</TranslatedText></Description><def:Origin Type="Derived" /></ItemDef><ItemDef DataType="text" Length="7" Name="ETCD" OID="IT.SE.ETCD" SASFieldName="ETCD"><Description><TranslatedText xml:lang="en">Element Code</TranslatedText></Description><def:Origin Type="Assigned" /></ItemDef><ItemDef DataType="text" Length="40" Name="ELEMENT" OID="IT.SE.ELEMENT" SASFieldName="ELEMENT"><Description><TranslatedText xml:lang="en">Description of Element</TranslatedText></Description><def:Origin Type="Protocol" /></ItemDef><ItemDef DataType="date" Name="SESTDTC" OID="IT.SE.SESTDTC" SASFieldName="SESTDTC"><Description><TranslatedText xml:lang="en">Start Date/Time of Element</TranslatedText></Description><def:Origin Type="Derived" /></ItemDef><ItemDef DataType="date" Name="SEENDTC" OID="IT.SE.SEENDTC" SASFieldName="SEENDTC"><Description><TranslatedText xml:lang="en">End Date/Time of Element</TranslatedText></Description><def:Origin Type="Derived" /></ItemDef><ItemDef DataType="integer" Length="1" Name="TAETORD" OID="IT.SE.TAETORD" SASFieldName="TAETORD"><Description><TranslatedText xml:lang="en">Planned Order of Elements within Arm</TranslatedText></Description><def:Origin Type="Protocol" /></ItemDef><ItemDef DataType="text" Length="7" Name="STUDYID" OID="IT.SUPPAE.STUDYID" SASFieldName="STUDYID"><Description><TranslatedText xml:lang="en">Study Identifier</TranslatedText></Description><def:Origin Type="Protocol" /></ItemDef><ItemDef DataType="text" Length="2" Name="RDOMAIN" OID="IT.SUPPAE.RDOMAIN" SASFieldName="RDOMAIN"><Description><TranslatedText xml:lang="en">Related Domain Abbreviation</TranslatedText></Description><def:Origin Type="Derived" /></ItemDef><ItemDef DataType="text" Length="14" Name="USUBJID" OID="IT.SUPPAE.USUBJID" SASFieldName="USUBJID"><Description><TranslatedText xml:lang="en">Unique Subject Identifier</TranslatedText></Description><def:Origin Type="Derived" /></ItemDef><ItemDef DataType="text" Length="5" Name="IDVAR" OID="IT.SUPPAE.IDVAR" SASFieldName="IDVAR" def:CommentOID="COM.IDVAR"><Description><TranslatedText xml:lang="en">Identifying Variable</TranslatedText></Description><def:Origin Type="Assigned" /></ItemDef><ItemDef DataType="text" Length="1" Name="IDVARVAL" OID="IT.SUPPAE.IDVARVAL" SASFieldName="IDVARVAL" def:CommentOID="COM.IDVARVAL"><Description><TranslatedText xml:lang="en">Identifying Variable Value</TranslatedText></Description><def:Origin Type="Assigned" /></ItemDef><ItemDef DataType="text" Length="7" Name="QNAM" OID="IT.SUPPAE.QNAM" SASFieldName="QNAM"><Description><TranslatedText xml:lang="en">Qualifier Variable Name</TranslatedText></Description><def:Origin Type="Assigned" /></ItemDef><ItemDef DataType="text" Length="30" Name="QLABEL" OID="IT.SUPPAE.QLABEL" SASFieldName="QLABEL"><Description><TranslatedText xml:lang="en">Qualifier Variable Label</TranslatedText></Description><def:Origin Type="Assigned" /></ItemDef><ItemDef DataType="text" Length="60" Name="QVAL" OID="IT.SUPPAE.QVAL" SASFieldName="QVAL"><Description><TranslatedText xml:lang="en">Data Value</TranslatedText></Description><def:Origin Type="Assigned" /><def:ValueListRef ValueListOID="VL.SUPPAE.QVAL" /></ItemDef><ItemDef DataType="text" Length="7" Name="QORIG" OID="IT.SUPPAE.QORIG" SASFieldName="QORIG"><Description><TranslatedText xml:lang="en">Origin</TranslatedText></Description><def:Origin Type="Assigned" /></ItemDef><ItemDef DataType="text" Length="30" Name="QEVAL" OID="IT.SUPPAE.QEVAL" SASFieldName="QEVAL"><Description><TranslatedText xml:lang="en">Evaluator</TranslatedText></Description><def:Origin Type="Assigned" /></ItemDef><ItemDef DataType="text" Length="7" Name="STUDYID" OID="IT.SUPPCM.STUDYID" SASFieldName="STUDYID"><Description><TranslatedText xml:lang="en">Study Identifier</TranslatedText></Description><def:Origin Type="Protocol" /></ItemDef><ItemDef DataType="text" Length="2" Name="RDOMAIN" OID="IT.SUPPCM.RDOMAIN" SASFieldName="RDOMAIN"><Description><TranslatedText xml:lang="en">Related Domain Abbreviation</TranslatedText></Description><def:Origin Type="Derived" /></ItemDef><ItemDef DataType="text" Length="14" Name="USUBJID" OID="IT.SUPPCM.USUBJID" SASFieldName="USUBJID"><Description><TranslatedText xml:lang="en">Unique Subject Identifier</TranslatedText></Description><def:Origin Type="Derived" /></ItemDef><ItemDef DataType="text" Length="5" Name="IDVAR" OID="IT.SUPPCM.IDVAR" SASFieldName="IDVAR" def:CommentOID="COM.IDVAR"><Description><TranslatedText xml:lang="en">Identifying Variable</TranslatedText></Description><def:Origin Type="Assigned" /></ItemDef><ItemDef DataType="text" Length="2" Name="IDVARVAL" OID="IT.SUPPCM.IDVARVAL" SASFieldName="IDVARVAL" def:CommentOID="COM.IDVARVAL"><Description><TranslatedText xml:lang="en">Identifying Variable Value</TranslatedText></Description><def:Origin Type="Assigned" /></ItemDef><ItemDef DataType="text" Length="8" Name="QNAM" OID="IT.SUPPCM.QNAM" SASFieldName="QNAM"><Description><TranslatedText xml:lang="en">Qualifier Variable Name</TranslatedText></Description><def:Origin Type="Assigned" /></ItemDef><ItemDef DataType="text" Length="26" Name="QLABEL" OID="IT.SUPPCM.QLABEL" SASFieldName="QLABEL"><Description><TranslatedText xml:lang="en">Qualifier Variable Label</TranslatedText></Description><def:Origin Type="Assigned" /></ItemDef><ItemDef DataType="text" Length="43" Name="QVAL" OID="IT.SUPPCM.QVAL" SASFieldName="QVAL"><Description><TranslatedText xml:lang="en">Data Value</TranslatedText></Description><def:Origin Type="Assigned" /><def:ValueListRef ValueListOID="VL.SUPPCM.QVAL" /></ItemDef><ItemDef DataType="text" Length="10" Name="QORIG" OID="IT.SUPPCM.QORIG" SASFieldName="QORIG"><Description><TranslatedText xml:lang="en">Origin</TranslatedText></Description><def:Origin Type="Assigned" /></ItemDef><ItemDef DataType="text" Length="30" Name="QEVAL" OID="IT.SUPPCM.QEVAL" SASFieldName="QEVAL"><Description><TranslatedText xml:lang="en">Evaluator</TranslatedText></Description><def:Origin Type="Assigned" /></ItemDef><ItemDef DataType="text" Length="7" Name="STUDYID" OID="IT.SUPPDM.STUDYID" SASFieldName="STUDYID"><Description><TranslatedText xml:lang="en">Study Identifier</TranslatedText></Description><def:Origin Type="Protocol" /></ItemDef><ItemDef DataType="text" Length="2" Name="RDOMAIN" OID="IT.SUPPDM.RDOMAIN" SASFieldName="RDOMAIN"><Description><TranslatedText xml:lang="en">Related Domain Abbreviation</TranslatedText></Description><def:Origin Type="Derived" /></ItemDef><ItemDef DataType="text" Length="14" Name="USUBJID" OID="IT.SUPPDM.USUBJID" SASFieldName="USUBJID"><Description><TranslatedText xml:lang="en">Unique Subject Identifier</TranslatedText></Description><def:Origin Type="Derived" /></ItemDef><ItemDef DataType="text" Length="1" Name="IDVAR" OID="IT.SUPPDM.IDVAR" SASFieldName="IDVAR" def:CommentOID="COM.IDVAR"><Description><TranslatedText xml:lang="en">Identifying Variable</TranslatedText></Description><def:Origin Type="Assigned" /></ItemDef><ItemDef DataType="text" Length="1" Name="IDVARVAL" OID="IT.SUPPDM.IDVARVAL" SASFieldName="IDVARVAL" def:CommentOID="COM.IDVARVAL"><Description><TranslatedText xml:lang="en">Identifying Variable Value</TranslatedText></Description><def:Origin Type="Assigned" /></ItemDef><ItemDef DataType="text" Length="8" Name="QNAM" OID="IT.SUPPDM.QNAM" SASFieldName="QNAM"><Description><TranslatedText xml:lang="en">Qualifier Variable Name</TranslatedText></Description><def:Origin Type="Assigned" /></ItemDef><ItemDef DataType="text" Length="26" Name="QLABEL" OID="IT.SUPPDM.QLABEL" SASFieldName="QLABEL"><Description><TranslatedText xml:lang="en">Qualifier Variable Label</TranslatedText></Description><def:Origin Type="Assigned" /></ItemDef><ItemDef DataType="text" Length="30" Name="QVAL" OID="IT.SUPPDM.QVAL" SASFieldName="QVAL"><Description><TranslatedText xml:lang="en">Data Value</TranslatedText></Description><def:Origin Type="Assigned" /><def:ValueListRef ValueListOID="VL.SUPPDM.QVAL" /></ItemDef><ItemDef DataType="text" Length="11" Name="QORIG" OID="IT.SUPPDM.QORIG" SASFieldName="QORIG"><Description><TranslatedText xml:lang="en">Origin</TranslatedText></Description><def:Origin Type="Assigned" /></ItemDef><ItemDef DataType="text" Length="30" Name="QEVAL" OID="IT.SUPPDM.QEVAL" SASFieldName="QEVAL"><Description><TranslatedText xml:lang="en">Evaluator</TranslatedText></Description><def:Origin Type="Assigned" /></ItemDef><ItemDef DataType="text" Length="7" Name="STUDYID" OID="IT.SUPPEG.STUDYID" SASFieldName="STUDYID"><Description><TranslatedText xml:lang="en">Study Identifier</TranslatedText></Description><def:Origin Type="Protocol" /></ItemDef><ItemDef DataType="text" Length="2" Name="RDOMAIN" OID="IT.SUPPEG.RDOMAIN" SASFieldName="RDOMAIN"><Description><TranslatedText xml:lang="en">Related Domain Abbreviation</TranslatedText></Description><def:Origin Type="Derived" /></ItemDef><ItemDef DataType="text" Length="14" Name="USUBJID" OID="IT.SUPPEG.USUBJID" SASFieldName="USUBJID"><Description><TranslatedText xml:lang="en">Unique Subject Identifier</TranslatedText></Description><def:Origin Type="Derived" /></ItemDef><ItemDef DataType="text" Length="5" Name="IDVAR" OID="IT.SUPPEG.IDVAR" SASFieldName="IDVAR" def:CommentOID="COM.IDVAR"><Description><TranslatedText xml:lang="en">Identifying Variable</TranslatedText></Description><def:Origin Type="Assigned" /></ItemDef><ItemDef DataType="text" Length="2" Name="IDVARVAL" OID="IT.SUPPEG.IDVARVAL" SASFieldName="IDVARVAL" def:CommentOID="COM.IDVARVAL"><Description><TranslatedText xml:lang="en">Identifying Variable Value</TranslatedText></Description><def:Origin Type="Assigned" /></ItemDef><ItemDef DataType="text" Length="7" Name="QNAM" OID="IT.SUPPEG.QNAM" SASFieldName="QNAM"><Description><TranslatedText xml:lang="en">Qualifier Variable Name</TranslatedText></Description><def:Origin Type="Assigned" /></ItemDef><ItemDef DataType="text" Length="36" Name="QLABEL" OID="IT.SUPPEG.QLABEL" SASFieldName="QLABEL"><Description><TranslatedText xml:lang="en">Qualifier Variable Label</TranslatedText></Description><def:Origin Type="Assigned" /></ItemDef><ItemDef DataType="text" Length="2" Name="QVAL" OID="IT.SUPPEG.QVAL" SASFieldName="QVAL"><Description><TranslatedText xml:lang="en">Data Value</TranslatedText></Description><def:Origin Type="Assigned" /><def:ValueListRef ValueListOID="VL.SUPPEG.QVAL" /></ItemDef><ItemDef DataType="text" Length="7" Name="QORIG" OID="IT.SUPPEG.QORIG" SASFieldName="QORIG"><Description><TranslatedText xml:lang="en">Origin</TranslatedText></Description><def:Origin Type="Assigned" /></ItemDef><ItemDef DataType="text" Length="30" Name="QEVAL" OID="IT.SUPPEG.QEVAL" SASFieldName="QEVAL"><Description><TranslatedText xml:lang="en">Evaluator</TranslatedText></Description><def:Origin Type="Assigned" /></ItemDef><ItemDef DataType="text" Length="7" Name="STUDYID" OID="IT.SUPPEX.STUDYID" SASFieldName="STUDYID"><Description><TranslatedText xml:lang="en">Study Identifier</TranslatedText></Description><def:Origin Type="Protocol" /></ItemDef><ItemDef DataType="text" Length="2" Name="RDOMAIN" OID="IT.SUPPEX.RDOMAIN" SASFieldName="RDOMAIN"><Description><TranslatedText xml:lang="en">Related Domain Abbreviation</TranslatedText></Description><def:Origin Type="Derived" /></ItemDef><ItemDef DataType="text" Length="14" Name="USUBJID" OID="IT.SUPPEX.USUBJID" SASFieldName="USUBJID"><Description><TranslatedText xml:lang="en">Unique Subject Identifier</TranslatedText></Description><def:Origin Type="Derived" /></ItemDef><ItemDef DataType="text" Length="5" Name="IDVAR" OID="IT.SUPPEX.IDVAR" SASFieldName="IDVAR" def:CommentOID="COM.IDVAR"><Description><TranslatedText xml:lang="en">Identifying Variable</TranslatedText></Description><def:Origin Type="Assigned" /></ItemDef><ItemDef DataType="text" Length="1" Name="IDVARVAL" OID="IT.SUPPEX.IDVARVAL" SASFieldName="IDVARVAL" def:CommentOID="COM.IDVARVAL"><Description><TranslatedText xml:lang="en">Identifying Variable Value</TranslatedText></Description><def:Origin Type="Assigned" /></ItemDef><ItemDef DataType="text" Length="4" Name="QNAM" OID="IT.SUPPEX.QNAM" SASFieldName="QNAM"><Description><TranslatedText xml:lang="en">Qualifier Variable Name</TranslatedText></Description><def:Origin Type="Assigned" /></ItemDef><ItemDef DataType="text" Length="25" Name="QLABEL" OID="IT.SUPPEX.QLABEL" SASFieldName="QLABEL"><Description><TranslatedText xml:lang="en">Qualifier Variable Label</TranslatedText></Description><def:Origin Type="Assigned" /></ItemDef><ItemDef DataType="text" Length="2" Name="QVAL" OID="IT.SUPPEX.QVAL" SASFieldName="QVAL"><Description><TranslatedText xml:lang="en">Data Value</TranslatedText></Description><def:Origin Type="Assigned" /><def:ValueListRef ValueListOID="VL.SUPPEX.QVAL" /></ItemDef><ItemDef DataType="text" Length="11" Name="QORIG" OID="IT.SUPPEX.QORIG" SASFieldName="QORIG"><Description><TranslatedText xml:lang="en">Origin</TranslatedText></Description><def:Origin Type="Assigned" /></ItemDef><ItemDef DataType="text" Length="30" Name="QEVAL" OID="IT.SUPPEX.QEVAL" SASFieldName="QEVAL"><Description><TranslatedText xml:lang="en">Evaluator</TranslatedText></Description><def:Origin Type="Assigned" /></ItemDef><ItemDef DataType="text" Length="7" Name="STUDYID" OID="IT.SUPPLB.STUDYID" SASFieldName="STUDYID"><Description><TranslatedText xml:lang="en">Study Identifier</TranslatedText></Description><def:Origin Type="Protocol" /></ItemDef><ItemDef DataType="text" Length="2" Name="RDOMAIN" OID="IT.SUPPLB.RDOMAIN" SASFieldName="RDOMAIN"><Description><TranslatedText xml:lang="en">Related Domain Abbreviation</TranslatedText></Description><def:Origin Type="Derived" /></ItemDef><ItemDef DataType="text" Length="14" Name="USUBJID" OID="IT.SUPPLB.USUBJID" SASFieldName="USUBJID"><Description><TranslatedText xml:lang="en">Unique Subject Identifier</TranslatedText></Description><def:Origin Type="Derived" /></ItemDef><ItemDef DataType="text" Length="5" Name="IDVAR" OID="IT.SUPPLB.IDVAR" SASFieldName="IDVAR" def:CommentOID="COM.IDVAR"><Description><TranslatedText xml:lang="en">Identifying Variable</TranslatedText></Description><def:Origin Type="Assigned" /></ItemDef><ItemDef DataType="text" Length="2" Name="IDVARVAL" OID="IT.SUPPLB.IDVARVAL" SASFieldName="IDVARVAL" def:CommentOID="COM.IDVARVAL"><Description><TranslatedText xml:lang="en">Identifying Variable Value</TranslatedText></Description><def:Origin Type="Assigned" /></ItemDef><ItemDef DataType="text" Length="7" Name="QNAM" OID="IT.SUPPLB.QNAM" SASFieldName="QNAM"><Description><TranslatedText xml:lang="en">Qualifier Variable Name</TranslatedText></Description><def:Origin Type="Assigned" /></ItemDef><ItemDef DataType="text" Length="36" Name="QLABEL" OID="IT.SUPPLB.QLABEL" SASFieldName="QLABEL"><Description><TranslatedText xml:lang="en">Qualifier Variable Label</TranslatedText></Description><def:Origin Type="Assigned" /></ItemDef><ItemDef DataType="text" Length="2" Name="QVAL" OID="IT.SUPPLB.QVAL" SASFieldName="QVAL"><Description><TranslatedText xml:lang="en">Data Value</TranslatedText></Description><def:Origin Type="Assigned" /><def:ValueListRef ValueListOID="VL.SUPPLB.QVAL" /></ItemDef><ItemDef DataType="text" Length="7" Name="QORIG" OID="IT.SUPPLB.QORIG" SASFieldName="QORIG"><Description><TranslatedText xml:lang="en">Origin</TranslatedText></Description><def:Origin Type="Assigned" /></ItemDef><ItemDef DataType="text" Length="30" Name="QEVAL" OID="IT.SUPPLB.QEVAL" SASFieldName="QEVAL"><Description><TranslatedText xml:lang="en">Evaluator</TranslatedText></Description><def:Origin Type="Assigned" /></ItemDef><ItemDef DataType="text" Length="7" Name="STUDYID" OID="IT.SUPPQSCG.STUDYID" SASFieldName="STUDYID"><Description><TranslatedText xml:lang="en">Study Identifier</TranslatedText></Description><def:Origin Type="Protocol" /></ItemDef><ItemDef DataType="text" Length="2" Name="RDOMAIN" OID="IT.SUPPQSCG.RDOMAIN" SASFieldName="RDOMAIN"><Description><TranslatedText xml:lang="en">Related Domain Abbreviation</TranslatedText></Description><def:Origin Type="Derived" /></ItemDef><ItemDef DataType="text" Length="14" Name="USUBJID" OID="IT.SUPPQSCG.USUBJID" SASFieldName="USUBJID"><Description><TranslatedText xml:lang="en">Unique Subject Identifier</TranslatedText></Description><def:Origin Type="Derived" /></ItemDef><ItemDef DataType="text" Length="5" Name="IDVAR" OID="IT.SUPPQSCG.IDVAR" SASFieldName="IDVAR" def:CommentOID="COM.IDVAR"><Description><TranslatedText xml:lang="en">Identifying Variable</TranslatedText></Description><def:Origin Type="Assigned" /></ItemDef><ItemDef DataType="text" Length="50" Name="IDVARVAL" OID="IT.SUPPQSCG.IDVARVAL" SASFieldName="IDVARVAL" def:CommentOID="COM.IDVARVAL"><Description><TranslatedText xml:lang="en">Identifying Variable Value</TranslatedText></Description><def:Origin Type="Assigned" /></ItemDef><ItemDef DataType="text" Length="7" Name="QNAM" OID="IT.SUPPQSCG.QNAM" SASFieldName="QNAM"><Description><TranslatedText xml:lang="en">Qualifier Variable Name</TranslatedText></Description><def:Origin Type="Assigned" /></ItemDef><ItemDef DataType="text" Length="36" Name="QLABEL" OID="IT.SUPPQSCG.QLABEL" SASFieldName="QLABEL"><Description><TranslatedText xml:lang="en">Qualifier Variable Label</TranslatedText></Description><def:Origin Type="Assigned" /></ItemDef><ItemDef DataType="text" Length="3" Name="QVAL" OID="IT.SUPPQSCG.QVAL" SASFieldName="QVAL"><Description><TranslatedText xml:lang="en">Data Value</TranslatedText></Description><def:Origin Type="Assigned" /></ItemDef><ItemDef DataType="text" Length="7" Name="QORIG" OID="IT.SUPPQSCG.QORIG" SASFieldName="QORIG"><Description><TranslatedText xml:lang="en">Origin</TranslatedText></Description><def:Origin Type="Assigned" /></ItemDef><ItemDef DataType="text" Length="30" Name="QEVAL" OID="IT.SUPPQSCG.QEVAL" SASFieldName="QEVAL"><Description><TranslatedText xml:lang="en">Evaluator</TranslatedText></Description><def:Origin Type="Assigned" /></ItemDef><ItemDef DataType="text" Length="7" Name="STUDYID" OID="IT.SUPPQSCS.STUDYID" SASFieldName="STUDYID"><Description><TranslatedText xml:lang="en">Study Identifier</TranslatedText></Description><def:Origin Type="Protocol" /></ItemDef><ItemDef DataType="text" Length="2" Name="RDOMAIN" OID="IT.SUPPQSCS.RDOMAIN" SASFieldName="RDOMAIN"><Description><TranslatedText xml:lang="en">Related Domain Abbreviation</TranslatedText></Description><def:Origin Type="Derived" /></ItemDef><ItemDef DataType="text" Length="14" Name="USUBJID" OID="IT.SUPPQSCS.USUBJID" SASFieldName="USUBJID"><Description><TranslatedText xml:lang="en">Unique Subject Identifier</TranslatedText></Description><def:Origin Type="Derived" /></ItemDef><ItemDef DataType="text" Length="5" Name="IDVAR" OID="IT.SUPPQSCS.IDVAR" SASFieldName="IDVAR" def:CommentOID="COM.IDVAR"><Description><TranslatedText xml:lang="en">Identifying Variable</TranslatedText></Description><def:Origin Type="Assigned" /></ItemDef><ItemDef DataType="text" Length="50" Name="IDVARVAL" OID="IT.SUPPQSCS.IDVARVAL" SASFieldName="IDVARVAL" def:CommentOID="COM.IDVARVAL"><Description><TranslatedText xml:lang="en">Identifying Variable Value</TranslatedText></Description><def:Origin Type="Assigned" /></ItemDef><ItemDef DataType="text" Length="7" Name="QNAM" OID="IT.SUPPQSCS.QNAM" SASFieldName="QNAM"><Description><TranslatedText xml:lang="en">Qualifier Variable Name</TranslatedText></Description><def:Origin Type="Assigned" /></ItemDef><ItemDef DataType="text" Length="36" Name="QLABEL" OID="IT.SUPPQSCS.QLABEL" SASFieldName="QLABEL"><Description><TranslatedText xml:lang="en">Qualifier Variable Label</TranslatedText></Description><def:Origin Type="Assigned" /></ItemDef><ItemDef DataType="text" Length="3" Name="QVAL" OID="IT.SUPPQSCS.QVAL" SASFieldName="QVAL"><Description><TranslatedText xml:lang="en">Data Value</TranslatedText></Description><def:Origin Type="Assigned" /></ItemDef><ItemDef DataType="text" Length="7" Name="QORIG" OID="IT.SUPPQSCS.QORIG" SASFieldName="QORIG"><Description><TranslatedText xml:lang="en">Origin</TranslatedText></Description><def:Origin Type="Assigned" /></ItemDef><ItemDef DataType="text" Length="30" Name="QEVAL" OID="IT.SUPPQSCS.QEVAL" SASFieldName="QEVAL"><Description><TranslatedText xml:lang="en">Evaluator</TranslatedText></Description><def:Origin Type="Assigned" /></ItemDef><ItemDef DataType="text" Length="7" Name="STUDYID" OID="IT.SUPPQSMM.STUDYID" SASFieldName="STUDYID"><Description><TranslatedText xml:lang="en">Study Identifier</TranslatedText></Description><def:Origin Type="Protocol" /></ItemDef><ItemDef DataType="text" Length="2" Name="RDOMAIN" OID="IT.SUPPQSMM.RDOMAIN" SASFieldName="RDOMAIN"><Description><TranslatedText xml:lang="en">Related Domain Abbreviation</TranslatedText></Description><def:Origin Type="Derived" /></ItemDef><ItemDef DataType="text" Length="14" Name="USUBJID" OID="IT.SUPPQSMM.USUBJID" SASFieldName="USUBJID"><Description><TranslatedText xml:lang="en">Unique Subject Identifier</TranslatedText></Description><def:Origin Type="Derived" /></ItemDef><ItemDef DataType="text" Length="5" Name="IDVAR" OID="IT.SUPPQSMM.IDVAR" SASFieldName="IDVAR" def:CommentOID="COM.IDVAR"><Description><TranslatedText xml:lang="en">Identifying Variable</TranslatedText></Description><def:Origin Type="Assigned" /></ItemDef><ItemDef DataType="text" Length="50" Name="IDVARVAL" OID="IT.SUPPQSMM.IDVARVAL" SASFieldName="IDVARVAL" def:CommentOID="COM.IDVARVAL"><Description><TranslatedText xml:lang="en">Identifying Variable Value</TranslatedText></Description><def:Origin Type="Assigned" /></ItemDef><ItemDef DataType="text" Length="7" Name="QNAM" OID="IT.SUPPQSMM.QNAM" SASFieldName="QNAM"><Description><TranslatedText xml:lang="en">Qualifier Variable Name</TranslatedText></Description><def:Origin Type="Assigned" /></ItemDef><ItemDef DataType="text" Length="36" Name="QLABEL" OID="IT.SUPPQSMM.QLABEL" SASFieldName="QLABEL"><Description><TranslatedText xml:lang="en">Qualifier Variable Label</TranslatedText></Description><def:Origin Type="Assigned" /></ItemDef><ItemDef DataType="text" Length="3" Name="QVAL" OID="IT.SUPPQSMM.QVAL" SASFieldName="QVAL"><Description><TranslatedText xml:lang="en">Data Value</TranslatedText></Description><def:Origin Type="Assigned" /><def:ValueListRef ValueListOID="VL.SUPPQSMM.QVAL" /></ItemDef><ItemDef DataType="text" Length="7" Name="QORIG" OID="IT.SUPPQSMM.QORIG" SASFieldName="QORIG"><Description><TranslatedText xml:lang="en">Origin</TranslatedText></Description><def:Origin Type="Assigned" /></ItemDef><ItemDef DataType="text" Length="30" Name="QEVAL" OID="IT.SUPPQSMM.QEVAL" SASFieldName="QEVAL"><Description><TranslatedText xml:lang="en">Evaluator</TranslatedText></Description><def:Origin Type="Assigned" /></ItemDef><ItemDef DataType="text" Length="7" Name="STUDYID" OID="IT.SUPPVS.STUDYID" SASFieldName="STUDYID"><Description><TranslatedText xml:lang="en">Study Identifier</TranslatedText></Description><def:Origin Type="Protocol" /></ItemDef><ItemDef DataType="text" Length="2" Name="RDOMAIN" OID="IT.SUPPVS.RDOMAIN" SASFieldName="RDOMAIN"><Description><TranslatedText xml:lang="en">Related Domain Abbreviation</TranslatedText></Description><def:Origin Type="Derived" /></ItemDef><ItemDef DataType="text" Length="14" Name="USUBJID" OID="IT.SUPPVS.USUBJID" SASFieldName="USUBJID"><Description><TranslatedText xml:lang="en">Unique Subject Identifier</TranslatedText></Description><def:Origin Type="Derived" /></ItemDef><ItemDef DataType="text" Length="5" Name="IDVAR" OID="IT.SUPPVS.IDVAR" SASFieldName="IDVAR" def:CommentOID="COM.IDVAR"><Description><TranslatedText xml:lang="en">Identifying Variable</TranslatedText></Description><def:Origin Type="Assigned" /></ItemDef><ItemDef DataType="text" Length="2" Name="IDVARVAL" OID="IT.SUPPVS.IDVARVAL" SASFieldName="IDVARVAL" def:CommentOID="COM.IDVARVAL"><Description><TranslatedText xml:lang="en">Identifying Variable Value</TranslatedText></Description><def:Origin Type="Assigned" /></ItemDef><ItemDef DataType="text" Length="7" Name="QNAM" OID="IT.SUPPVS.QNAM" SASFieldName="QNAM"><Description><TranslatedText xml:lang="en">Qualifier Variable Name</TranslatedText></Description><def:Origin Type="Assigned" /></ItemDef><ItemDef DataType="text" Length="36" Name="QLABEL" OID="IT.SUPPVS.QLABEL" SASFieldName="QLABEL"><Description><TranslatedText xml:lang="en">Qualifier Variable Label</TranslatedText></Description><def:Origin Type="Assigned" /></ItemDef><ItemDef DataType="text" Length="2" Name="QVAL" OID="IT.SUPPVS.QVAL" SASFieldName="QVAL"><Description><TranslatedText xml:lang="en">Data Value</TranslatedText></Description><def:Origin Type="Assigned" /><def:ValueListRef ValueListOID="VL.SUPPVS.QVAL" /></ItemDef><ItemDef DataType="text" Length="7" Name="QORIG" OID="IT.SUPPVS.QORIG" SASFieldName="QORIG"><Description><TranslatedText xml:lang="en">Origin</TranslatedText></Description><def:Origin Type="Assigned" /></ItemDef><ItemDef DataType="text" Length="30" Name="QEVAL" OID="IT.SUPPVS.QEVAL" SASFieldName="QEVAL"><Description><TranslatedText xml:lang="en">Evaluator</TranslatedText></Description><def:Origin Type="Assigned" /></ItemDef><ItemDef DataType="text" Length="7" Name="STUDYID" OID="IT.SV.STUDYID" SASFieldName="STUDYID"><Description><TranslatedText xml:lang="en">Study Identifier</TranslatedText></Description><def:Origin Type="Protocol" /></ItemDef><ItemDef DataType="text" Length="2" Name="DOMAIN" OID="IT.SV.DOMAIN" SASFieldName="DOMAIN"><Description><TranslatedText xml:lang="en">Domain Abbreviation</TranslatedText></Description><CodeListRef CodeListOID="CL.SV.DOMAIN" /><def:Origin Type="Assigned" /></ItemDef><ItemDef DataType="text" Length="14" Name="USUBJID" OID="IT.SV.USUBJID" SASFieldName="USUBJID"><Description><TranslatedText xml:lang="en">Unique Subject Identifier</TranslatedText></Description><def:Origin Type="Derived" /></ItemDef><ItemDef DataType="integer" Length="2" Name="VISITNUM" OID="IT.SV.VISITNUM" SASFieldName="VISITNUM"><Description><TranslatedText xml:lang="en">Visit Number</TranslatedText></Description><def:Origin Type="Derived" /></ItemDef><ItemDef DataType="text" Length="8" Name="VISIT" OID="IT.SV.VISIT" SASFieldName="VISIT"><Description><TranslatedText xml:lang="en">Visit Name</TranslatedText></Description><def:Origin Type="Derived" /></ItemDef><ItemDef DataType="integer" Length="3" Name="VISITDY" OID="IT.SV.VISITDY" SASFieldName="VISITDY"><Description><TranslatedText xml:lang="en">Planned Study Day of Visit</TranslatedText></Description><def:Origin Type="Protocol" /></ItemDef><ItemDef DataType="date" Name="SVSTDTC" OID="IT.SV.SVSTDTC" SASFieldName="SVSTDTC"><Description><TranslatedText xml:lang="en">Start Date/Time of Visit</TranslatedText></Description><def:Origin Type="Derived" /></ItemDef><ItemDef DataType="date" Name="SVENDTC" OID="IT.SV.SVENDTC" SASFieldName="SVENDTC"><Description><TranslatedText xml:lang="en">End Date/Time of Visit</TranslatedText></Description><def:Origin Type="Derived" /></ItemDef><ItemDef DataType="integer" Length="3" Name="SVSTDY" OID="IT.SV.SVSTDY" SASFieldName="SVSTDY"><Description><TranslatedText xml:lang="en">Study Day of Start of Visit</TranslatedText></Description><def:Origin Type="Derived" /></ItemDef><ItemDef DataType="text" Length="7" Name="STUDYID" OID="IT.TA.STUDYID" SASFieldName="STUDYID"><Description><TranslatedText xml:lang="en">Study Identifier</TranslatedText></Description><def:Origin Type="Protocol" /></ItemDef><ItemDef DataType="text" Length="2" Name="DOMAIN" OID="IT.TA.DOMAIN" SASFieldName="DOMAIN"><Description><TranslatedText xml:lang="en">Domain Abbreviation</TranslatedText></Description><CodeListRef CodeListOID="CL.TA.DOMAIN" /><def:Origin Type="Assigned" /></ItemDef><ItemDef DataType="text" Length="8" Name="ARMCD" OID="IT.TA.ARMCD" SASFieldName="ARMCD"><Description><TranslatedText xml:lang="en">Planned Arm Code</TranslatedText></Description><CodeListRef CodeListOID="CL.ARMCD" /><def:Origin Type="Assigned" /></ItemDef><ItemDef DataType="text" Length="20" Name="ARM" OID="IT.TA.ARM" SASFieldName="ARM"><Description><TranslatedText xml:lang="en">Description of Planned Arm</TranslatedText></Description><CodeListRef CodeListOID="CL.ARM" /><def:Origin Type="Protocol" /></ItemDef><ItemDef DataType="integer" Length="1" Name="TAETORD" OID="IT.TA.TAETORD" SASFieldName="TAETORD"><Description><TranslatedText xml:lang="en">Order of Element within Arm</TranslatedText></Description><def:Origin Type="Assigned" /></ItemDef><ItemDef DataType="text" Length="8" Name="ETCD" OID="IT.TA.ETCD" SASFieldName="ETCD"><Description><TranslatedText xml:lang="en">Element Code</TranslatedText></Description><def:Origin Type="Assigned" /></ItemDef><ItemDef DataType="text" Length="40" Name="ELEMENT" OID="IT.TA.ELEMENT" SASFieldName="ELEMENT"><Description><TranslatedText xml:lang="en">Description of Element</TranslatedText></Description><def:Origin Type="Protocol" /></ItemDef><ItemDef DataType="text" Length="35" Name="TABRANCH" OID="IT.TA.TABRANCH" SASFieldName="TABRANCH"><Description><TranslatedText xml:lang="en">Branch</TranslatedText></Description><def:Origin Type="Protocol" /></ItemDef><ItemDef DataType="text" Length="1" Name="TATRANS" OID="IT.TA.TATRANS" SASFieldName="TATRANS"><Description><TranslatedText xml:lang="en">Transition Rule</TranslatedText></Description><def:Origin Type="Protocol" /></ItemDef><ItemDef DataType="text" Length="30" Name="EPOCH" OID="IT.TA.EPOCH" SASFieldName="EPOCH"><Description><TranslatedText xml:lang="en">Epoch</TranslatedText></Description><def:Origin Type="Protocol" /></ItemDef><ItemDef DataType="text" Length="7" Name="STUDYID" OID="IT.TE.STUDYID" SASFieldName="STUDYID"><Description><TranslatedText xml:lang="en">Study Identifier</TranslatedText></Description><def:Origin Type="Protocol" /></ItemDef><ItemDef DataType="text" Length="2" Name="DOMAIN" OID="IT.TE.DOMAIN" SASFieldName="DOMAIN"><Description><TranslatedText xml:lang="en">Domain Abbreviation</TranslatedText></Description><CodeListRef CodeListOID="CL.TE.DOMAIN" /><def:Origin Type="Assigned" /></ItemDef><ItemDef DataType="text" Length="8" Name="ETCD" OID="IT.TE.ETCD" SASFieldName="ETCD"><Description><TranslatedText xml:lang="en">Element Code</TranslatedText></Description><def:Origin Type="Assigned" /></ItemDef><ItemDef DataType="text" Length="40" Name="ELEMENT" OID="IT.TE.ELEMENT" SASFieldName="ELEMENT"><Description><TranslatedText xml:lang="en">Description of Element</TranslatedText></Description><def:Origin Type="Protocol" /></ItemDef><ItemDef DataType="text" Length="24" Name="TESTRL" OID="IT.TE.TESTRL" SASFieldName="TESTRL"><Description><TranslatedText xml:lang="en">Rule for Start of Element</TranslatedText></Description><def:Origin Type="Protocol" /></ItemDef><ItemDef DataType="text" Length="4" Name="TEDUR" OID="IT.TE.TEDUR" SASFieldName="TEDUR"><Description><TranslatedText xml:lang="en">Planned Duration of Element</TranslatedText></Description><def:Origin Type="Protocol" /></ItemDef><ItemDef DataType="text" Length="7" Name="STUDYID" OID="IT.TI.STUDYID" SASFieldName="STUDYID"><Description><TranslatedText xml:lang="en">Study Identifier</TranslatedText></Description><def:Origin Type="Protocol" /></ItemDef><ItemDef DataType="text" Length="2" Name="DOMAIN" OID="IT.TI.DOMAIN" SASFieldName="DOMAIN"><Description><TranslatedText xml:lang="en">Domain Abbreviation</TranslatedText></Description><CodeListRef CodeListOID="CL.TI.DOMAIN" /><def:Origin Type="Assigned" /></ItemDef><ItemDef DataType="text" Length="6" Name="IETESTCD" OID="IT.TI.IETESTCD" SASFieldName="IETESTCD"><Description><TranslatedText xml:lang="en">Incl/Excl Criterion Short Name</TranslatedText></Description><CodeListRef CodeListOID="CL.IETESTCD" /><def:Origin Type="Assigned" /></ItemDef><ItemDef DataType="text" Length="92" Name="IETEST" OID="IT.TI.IETEST" SASFieldName="IETEST"><Description><TranslatedText xml:lang="en">Inclusion/Exclusion Criterion</TranslatedText></Description><CodeListRef CodeListOID="CL.IETEST" /><def:Origin Type="CRF"><def:DocumentRef leafID="LF.blankcrf"><def:PDFPageRef PageRefs="4 5" Type="PhysicalRef" /></def:DocumentRef></def:Origin></ItemDef><ItemDef DataType="text" Length="9" Name="IECAT" OID="IT.TI.IECAT" SASFieldName="IECAT"><Description><TranslatedText xml:lang="en">Inclusion/Exclusion Category</TranslatedText></Description><def:Origin Type="CRF"><def:DocumentRef leafID="LF.blankcrf"><def:PDFPageRef PageRefs="4 5" Type="PhysicalRef" /></def:DocumentRef></def:Origin></ItemDef><ItemDef DataType="text" Length="7" Name="STUDYID" OID="IT.TS.STUDYID" SASFieldName="STUDYID"><Description><TranslatedText xml:lang="en">Study Identifier</TranslatedText></Description><def:Origin Type="Protocol" /></ItemDef><ItemDef DataType="text" Length="2" Name="DOMAIN" OID="IT.TS.DOMAIN" SASFieldName="DOMAIN"><Description><TranslatedText xml:lang="en">Domain Abbreviation</TranslatedText></Description><CodeListRef CodeListOID="CL.TS.DOMAIN" /><def:Origin Type="Assigned" /></ItemDef><ItemDef DataType="integer" Length="1" Name="TSSEQ" OID="IT.TS.TSSEQ" SASFieldName="TSSEQ"><Description><TranslatedText xml:lang="en">Sequence Number</TranslatedText></Description><def:Origin Type="Derived" /></ItemDef><ItemDef DataType="text" Length="8" Name="TSPARMCD" OID="IT.TS.TSPARMCD" SASFieldName="TSPARMCD"><Description><TranslatedText xml:lang="en">Trial Summary Parameter Short Name</TranslatedText></Description><CodeListRef CodeListOID="CL.TSPARMCD" /><def:Origin Type="Assigned" /></ItemDef><ItemDef DataType="text" Length="36" Name="TSPARM" OID="IT.TS.TSPARM" SASFieldName="TSPARM"><Description><TranslatedText xml:lang="en">Trial Summary Parameter</TranslatedText></Description><CodeListRef CodeListOID="CL.TSPARM" /><def:Origin Type="Assigned" /></ItemDef><ItemDef DataType="text" Length="57" Name="TSVAL" OID="IT.TS.TSVAL" SASFieldName="TSVAL"><Description><TranslatedText xml:lang="en">Parameter Value</TranslatedText></Description><def:Origin Type="Protocol" /><def:ValueListRef ValueListOID="VL.TS.TSVAL" /></ItemDef><ItemDef DataType="text" Length="7" Name="STUDYID" OID="IT.TV.STUDYID" SASFieldName="STUDYID"><Description><TranslatedText xml:lang="en">Study Identifier</TranslatedText></Description><def:Origin Type="Protocol" /></ItemDef><ItemDef DataType="text" Length="2" Name="DOMAIN" OID="IT.TV.DOMAIN" SASFieldName="DOMAIN"><Description><TranslatedText xml:lang="en">Domain Abbreviation</TranslatedText></Description><CodeListRef CodeListOID="CL.TV.DOMAIN" /><def:Origin Type="Assigned" /></ItemDef><ItemDef DataType="integer" Length="2" Name="VISITNUM" OID="IT.TV.VISITNUM" SASFieldName="VISITNUM"><Description><TranslatedText xml:lang="en">Visit Number</TranslatedText></Description><def:Origin Type="Assigned" /></ItemDef><ItemDef DataType="text" Length="12" Name="VISIT" OID="IT.TV.VISIT" SASFieldName="VISIT"><Description><TranslatedText xml:lang="en">Visit Name</TranslatedText></Description><def:Origin Type="Protocol" /></ItemDef><ItemDef DataType="integer" Length="3" Name="VISITDY" OID="IT.TV.VISITDY" SASFieldName="VISITDY"><Description><TranslatedText xml:lang="en">Planned Study Day of Visit</TranslatedText></Description><def:Origin Type="Protocol" /></ItemDef><ItemDef DataType="text" Length="1" Name="ARMCD" OID="IT.TV.ARMCD" SASFieldName="ARMCD"><Description><TranslatedText xml:lang="en">Planned Arm Code</TranslatedText></Description><def:Origin Type="Assigned" /></ItemDef><ItemDef DataType="text" Length="30" Name="TVSTRL" OID="IT.TV.TVSTRL" SASFieldName="TVSTRL"><Description><TranslatedText xml:lang="en">Visit Start Rule</TranslatedText></Description><def:Origin Type="Protocol" /></ItemDef><ItemDef DataType="text" Length="7" Name="STUDYID" OID="IT.VS.STUDYID" SASFieldName="STUDYID"><Description><TranslatedText xml:lang="en">Study Identifier</TranslatedText></Description><def:Origin Type="Protocol" /></ItemDef><ItemDef DataType="text" Length="2" Name="DOMAIN" OID="IT.VS.DOMAIN" SASFieldName="DOMAIN"><Description><TranslatedText xml:lang="en">Domain Abbreviation</TranslatedText></Description><CodeListRef CodeListOID="CL.VS.DOMAIN" /><def:Origin Type="Assigned" /></ItemDef><ItemDef DataType="text" Length="14" Name="USUBJID" OID="IT.VS.USUBJID" SASFieldName="USUBJID"><Description><TranslatedText xml:lang="en">Unique Subject Identifier</TranslatedText></Description><def:Origin Type="Derived" /></ItemDef><ItemDef DataType="integer" Length="2" Name="VSSEQ" OID="IT.VS.VSSEQ" SASFieldName="VSSEQ"><Description><TranslatedText xml:lang="en">Sequence Number</TranslatedText></Description><def:Origin Type="Derived" /></ItemDef><ItemDef DataType="text" Length="20" Name="VSTESTCD" OID="IT.VS.VSTESTCD" SASFieldName="VSTESTCD"><Description><TranslatedText xml:lang="en">Vital Signs Test Short Name</TranslatedText></Description><CodeListRef CodeListOID="CL.VSTESTCD" /><def:Origin Type="Assigned" /></ItemDef><ItemDef DataType="text" Length="24" Name="VSTEST" OID="IT.VS.VSTEST" SASFieldName="VSTEST"><Description><TranslatedText xml:lang="en">Vital Signs Test Name</TranslatedText></Description><CodeListRef CodeListOID="CL.VSTEST" /><def:Origin Type="CRF"><def:DocumentRef leafID="LF.blankcrf"><def:PDFPageRef PageRefs="11" Type="PhysicalRef" /></def:DocumentRef></def:Origin></ItemDef><ItemDef DataType="text" Length="7" Name="VSPOS" OID="IT.VS.VSPOS" SASFieldName="VSPOS"><Description><TranslatedText xml:lang="en">Vital Signs Position of Subject</TranslatedText></Description><def:Origin Type="CRF"><def:DocumentRef leafID="LF.blankcrf"><def:PDFPageRef PageRefs="11" Type="PhysicalRef" /></def:DocumentRef></def:Origin></ItemDef><ItemDef DataType="text" Length="30" Name="VSORRES" OID="IT.VS.VSORRES" SASFieldName="VSORRES"><Description><TranslatedText xml:lang="en">Result or Finding in Original Units</TranslatedText></Description><def:Origin Type="CRF"><def:DocumentRef leafID="LF.blankcrf"><def:PDFPageRef PageRefs="11" Type="PhysicalRef" /></def:DocumentRef></def:Origin><def:ValueListRef ValueListOID="VL.VS.VSORRES" /></ItemDef><ItemDef DataType="text" Length="20" Name="VSORRESU" OID="IT.VS.VSORRESU" SASFieldName="VSORRESU"><Description><TranslatedText xml:lang="en">Original Units</TranslatedText></Description><def:Origin Type="CRF"><def:DocumentRef leafID="LF.blankcrf"><def:PDFPageRef PageRefs="11" Type="PhysicalRef" /></def:DocumentRef></def:Origin><def:ValueListRef ValueListOID="VL.VS.VSORRESU" /></ItemDef><ItemDef DataType="text" Length="30" Name="VSSTRESC" OID="IT.VS.VSSTRESC" SASFieldName="VSSTRESC"><Description><TranslatedText xml:lang="en">Character Result/Finding in Std Format</TranslatedText></Description><def:Origin Type="Derived" /></ItemDef><ItemDef DataType="float" Length="5" Name="VSSTRESN" OID="IT.VS.VSSTRESN" SASFieldName="VSSTRESN" SignificantDigits="1" def:DisplayFormat="5.1"><Description><TranslatedText xml:lang="en">Numeric Result/Finding in Standard Units</TranslatedText></Description><def:Origin Type="Derived" /></ItemDef><ItemDef DataType="text" Length="9" Name="VSSTRESU" OID="IT.VS.VSSTRESU" SASFieldName="VSSTRESU" def:CommentOID="COM.VSSTRESU"><Description><TranslatedText xml:lang="en">Standard Units</TranslatedText></Description><CodeListRef CodeListOID="CL.VSRESU" /><def:Origin Type="Assigned" /></ItemDef><ItemDef DataType="text" Length="1" Name="VSBLFL" OID="IT.VS.VSBLFL" SASFieldName="VSBLFL"><Description><TranslatedText xml:lang="en">Baseline Flag</TranslatedText></Description><CodeListRef CodeListOID="CL.NY" /><def:Origin Type="Derived" /></ItemDef><ItemDef DataType="integer" Length="2" Name="VISITNUM" OID="IT.VS.VISITNUM" SASFieldName="VISITNUM" def:CommentOID="COM.VS.VISITNUM"><Description><TranslatedText xml:lang="en">Visit Number</TranslatedText></Description><def:Origin Type="Assigned" /></ItemDef><ItemDef DataType="text" Length="8" Name="VISIT" OID="IT.VS.VISIT" SASFieldName="VISIT"><Description><TranslatedText xml:lang="en">Visit Name</TranslatedText></Description><def:Origin Type="Assigned" /></ItemDef><ItemDef DataType="integer" Length="3" Name="VISITDY" OID="IT.VS.