{
  "datasetJSONCreationDateTime": "2026-05-04T19:11:16.992760+00:00",
  "datasetJSONVersion": "1.1.0",
  "fileOID": "www.cdisc.org/StudyCDISC01_1/1/Define-XML_2.1.0",
  "studyOID": "STDY.www.cdisc.org.CDISC01_1",
  "metaDataVersionOID": "MDV.CDISC01_1.1.SDTMIG.3.1.2.SDTM.1.2_X",
  "itemGroupOID": "IG.DEFINE.CODELISTS",
  "records": 40,
  "name": "codelists",
  "label": "CodeList Definitions",
  "columns": [
    {
      "itemOID": "DEFINE.CL.OID",
      "name": "OID",
      "label": "CodeList OID",
      "dataType": "string",
      "keySequence": 1
    },
    {
      "itemOID": "DEFINE.CL.NAME",
      "name": "Name",
      "label": "CodeList Name",
      "dataType": "string"
    },
    {
      "itemOID": "DEFINE.CL.DATATYPE",
      "name": "DataType",
      "label": "Data Type",
      "dataType": "string"
    },
    {
      "itemOID": "DEFINE.CL.ISNONSTANDARD",
      "name": "IsNonStandard",
      "label": "Is Non-Standard",
      "dataType": "string"
    },
    {
      "itemOID": "DEFINE.CL.STANDARDOID",
      "name": "StandardOID",
      "label": "Standard OID",
      "dataType": "string"
    },
    {
      "itemOID": "DEFINE.CL.SASFORMATNAME",
      "name": "SASFormatName",
      "label": "SAS Format Name",
      "dataType": "string"
    },
    {
      "itemOID": "DEFINE.CL.COMMENTOID",
      "name": "CommentOID",
      "label": "Comment OID",
      "dataType": "string"
    },
    {
      "itemOID": "DEFINE.CL.DESCRIPTIONTEXT",
      "name": "DescriptionText",
      "label": "Description",
      "dataType": "string"
    },
    {
      "itemOID": "DEFINE.CL.EXTERNALDICTIONARY",
      "name": "ExternalDictionary",
      "label": "External Dictionary",
      "dataType": "string"
    },
    {
      "itemOID": "DEFINE.CL.EXTERNALVERSION",
      "name": "ExternalVersion",
      "label": "External Version",
      "dataType": "string"
    },
    {
      "itemOID": "DEFINE.CL.EXTERNALREF",
      "name": "ExternalRef",
      "label": "External Ref",
      "dataType": "string"
    },
    {
      "itemOID": "DEFINE.CL.EXTERNALHREF",
      "name": "ExternalHref",
      "label": "External Href",
      "dataType": "string"
    }
  ],
  "rows": [
    [
      "CL.AGEU",
      "Age Unit",
      "text",
      null,
      "STD.3",
      null,
      null,
      null,
      null,
      null,
      null,
      null
    ],
    [
      "CL.ARM",
      "Description of Planned Arm",
      "text",
      null,
      "STD.3",
      null,
      null,
      null,
      null,
      null,
      null,
      null
    ],
    [
      "CL.ARMCD",
      "Planned Arm Code",
      "text",
      null,
      "STD.3",
      "$ARMCD",
      null,
      null,
      null,
      null,
      null,
      null
    ],
    [
      "CL.COUNTRY.STUDY",
      "Study Planned Countries",
      "text",
      null,
      "STD.3",
      "$COUNTRY",
      "COM.COUNTRY",
      null,
      null,
      null,
      null,
      null
    ],
    [
      "CL.DI.DOMAIN",
      "Domain Abbreviation (DI)",
      "text",
      null,
      "STD.4",
      "$DIDOMAI",
      null,
      null,
      null,
      null,
      null,
      null
    ],
    [
      "CL.DM.DOMAIN",
      "Domain Abbreviation (DM)",
      "text",
      null,
      "STD.3",
      "$DMDOMAI",
      null,
      null,
      null,
      null,
      null,
      null
    ],
    [
      "CL.EC.DOMAIN",
      "Domain Abbreviation (EC)",
      "text",
      null,
      "STD.4",
      "$ECDOMAI",
      "COM.CT2-EC",
      null,
      null,
      null,
      null,
      null
    ],
    [
      "CL.ETHNIC",
      "Ethnic Group",
      "text",
      null,
      "STD.3",
      null,
      null,
      null,
      null,
      null,
      null,
      null
    ],
    [
      "CL.EX.DOMAIN",
      "Domain Abbreviation (EX)",
      "text",
      null,
      "STD.3",
      "$EXDOMAI",
      null,
      null,
      null,
      null,
      null,
      null
    ],
    [
      "CL.EXTRT",
      "Treatment",
      "text",
      null,
      "STD.3",
      null,
      null,
      null,
      null,
      null,
      null,
      null
    ],
    [
      "CL.FRM",
      "Pharmaceutical Dosage Form",
      "text",
      null,
      "STD.3",
      "$FRM",
      null,
      null,
      null,
      null,
      null,
      null
    ],
    [
      "CL.LB.DOMAIN",
      "Domain Abbreviation (LB)",
      "text",
      null,
      "STD.3",
      "$LBDOMAI",
      null,
      null,
      null,
      null,
      null,
      null
    ],
    [
      "CL.LBRESU",
      "Unit (LBRESU)",
      "text",
      null,
      "STD.3",
      "$LBRESU",
      null,
      null,
      null,
      null,
      null,
      null
    ],
    [
      "CL.LBTEST",
      "Laboratory Test Name",
      "text",
      null,
      "STD.3",
      null,
      null,
      null,
      null,
      null,
      null,
      null
    ],
    [
      "CL.LBTESTCD",
      "Laboratory Test Code",
      "text",
      null,
      "STD.3",
      "$LBTESTC",
      null,
      null,
      null,
      null,
      null,
      null
    ],
    [
      "CL.METHOD",
      "Method",
      "text",
      null,
      "STD.3",
      null,
      null,
      null,
      null,
      null,
      null,
      null
    ],
    [
      "CL.NRIND",
      "Reference Range Indicator",
      "text",
      null,
      "STD.3",
      null,
      null,
      null,
      null,
      null,
      null,
      null
    ],
    [
      "CL.NY",
      "No Yes Response Subset",
      "text",
      null,
      "STD.3",
      "$NY",
      null,
      null,
      null,
      null,
      null,
      null
    ],
    [
      "CL.RACE",
      "Race",
      "text",
      null,
      "STD.3",
      null,
      null,
      null,
      null,
      null,
      null,
      null
    ],
    [
      "CL.SEX",
      "Sex",
      "text",
      null,
      "STD.4",
      "$SEX",
      "COM.CT2-SEX",
      null,
      null,
      null,
      null,
      null
    ],
    [
      "CL.SIZE",
      "Size",
      "text",
      null,
      "STD.3",
      null,
      null,
      null,
      null,
      null,
      null,
      null
    ],
    [
      "CL.SPECTYPE",
      "Specimen Type",
      "text",
      null,
      "STD.3",
      null,
      null,
      null,
      null,
      null,
      null,
      null
    ],
    [
      "CL.TS.DOMAIN",
      "Domain Abbreviation (TS)",
      "text",
      null,
      "STD.3",
      "$TSDOMAI",
      null,
      null,
      null,
      null,
      null,
      null
    ],
    [
      "CL.TSPARM",
      "Trial Summary Parameter Test Name",
      "text",
      null,
      "STD.3",
      null,
      null,
      null,
      null,
      null,
      null,
      null
    ],
    [
      "CL.TSPARMCD",
      "Trial Summary Parameter Test Code",
      "text",
      null,
      "STD.3",
      "$TSPARMC",
      null,
      null,
      null,
      null,
      null,
      null
    ],
    [
      "CL.UH_MC",
      "Unit (UH_MC)",
      "text",
      null,
      "STD.3",
      "$UH_MC",
      null,
      null,
      null,
      null,
      null,
      null
    ],
    [
      "CL.UH_NMC",
      "Unit (UH_NMC)",
      "text",
      null,
      "STD.3",
      "$UH_NMC",
      null,
      null,
      null,
      null,
      null,
      null
    ],
    [
      "CL.UW_MC",
      "Unit (UW_MC)",
      "text",
      null,
      "STD.3",
      "$UW_MC",
      null,
      null,
      null,
      null,
      null,
      null
    ],
    [
      "CL.UW_NMC",
      "Unit (UW_NMC)",
      "text",
      null,
      "STD.3",
      "$UW_NMC",
      null,
      null,
      null,
      null,
      null,
      null
    ],
    [
      "CL.VS.DOMAIN",
      "Domain Abbreviation (VS)",
      "text",
      null,
      "STD.3",
      "$VSDOMAI",
      null,
      null,
      null,
      null,
      null,
      null
    ],
    [
      "CL.VSRESU",
      "Units for Vital Signs Orig Results",
      "text",
      null,
      "STD.3",
      "$VSRESU",
      null,
      null,
      null,
      null,
      null,
      null
    ],
    [
      "CL.VSTEST",
      "Vital Signs Test Name",
      "text",
      null,
      "STD.3",
      null,
      null,
      null,
      null,
      null,
      null,
      null
    ],
    [
      "CL.VSTESTCD",
      "Vital Signs Test Code",
      "text",
      null,
      "STD.3",
      "$VSTESTC",
      null,
      null,
      null,
      null,
      null,
      null
    ],
    [
      "CL.XSRESU",
      "Units for S Findings Results",
      "text",
      null,
      "STD.3",
      "$XSRESU",
      null,
      null,
      null,
      null,
      null,
      null
    ],
    [
      "CL.XSTEST",
      "S Findings Test Name",
      "text",
      null,
      "STD.3",
      null,
      null,
      null,
      null,
      null,
      null,
      null
    ],
    [
      "CL.XSTESTCD",
      "S Findings Test Code",
      "text",
      null,
      "STD.3",
      "$XSTESTC",
      null,
      null,
      null,
      null,
      null,
      null
    ],
    [
      "CL.XXRESU",
      "Units for X Findings Results",
      "text",
      null,
      "STD.3",
      "$XXRESU",
      null,
      null,
      null,
      null,
      null,
      null
    ],
    [
      "CL.XXTEST",
      "X Findings Test Name",
      "text",
      null,
      "STD.3",
      null,
      null,
      null,
      null,
      null,
      null,
      null
    ],
    [
      "CL.XXTESTCD",
      "X Findings Test Code",
      "text",
      null,
      "STD.3",
      "$XXTESTC",
      null,
      null,
      null,
      null,
      null,
      null
    ],
    [
      "CL.ISO.COUNTRY",
      "Country Codes",
      "text",
      null,
      "STD.3",
      null,
      "COM.ISO3166",
      null,
      "ISO-3166 (Country Codes)",
      "2013-11-15",
      null,
      "https://www.iso.org/iso-3166-country-codes.html"
    ]
  ]
}