<?xml version='1.0' encoding='utf-8'?>
<ODM FileOID="ODM.DEFINE21.d611c8de-4b6f-44ff-ade2-b82a6aab83d1" AsOfDateTime="2026-05-07T11:43:50.402827+00:00"
     CreationDateTime="2026-05-07T11:43:50.402844+00:00" ODMVersion="1.3.2" FileType="Snapshot"
     Originator="360i Define-XML Team" SourceSystem="odmlib" SourceSystemVersion="0.2" def:Context="Other"
     xmlns="http://www.cdisc.org/ns/odm/v1.3" xmlns:xs="http://www.w3.org/2001/XMLSchema-instance"
     xmlns:xml="http://www.w3.org/XML/1998/namespace" xmlns:xlink="http://www.w3.org/1999/xlink"
     xmlns:def="http://www.cdisc.org/ns/def/v2.1">
    <Study OID="ODM.LZZT - NEW.Version1.Design1">
        <GlobalVariables>
            <StudyName>LZZT - NEW</StudyName>
            <StudyDescription>Safety and Efficacy of the Xanomeline Transdermal Therapeutic System (TTS) in Patients
                with Mild to Moderate Alzheimer's Disease
            </StudyDescription>
            <ProtocolName>LZZT - NEW</ProtocolName>
        </GlobalVariables>
        <MetaDataVersion OID="MDV.LZZT---NEW" Name="MDV LZZT - NEW" Description="Data Definitions for LZZT - NEW"
                         def:DefineVersion="2.1.0">
            <def:Standards>
                <def:Standard OID="STD.SDTMIG" Name="SDTMIG" Type="IG" Version="3.4" Status="FINAL"/>
                <def:Standard OID="STD.SDTMCT" Name="CDISC/NCI" Type="CT" Version="2025-03-28" Status="FINAL"
                              PublishingSet="SDTM"/>
            </def:Standards>
            <def:AnnotatedCRF>
                <def:DocumentRef leafID="LF.acrf"/>
            </def:AnnotatedCRF>
            <def:ValueListDef OID="VL.SC.SCORRES">
                <ItemRef ItemOID="IT.SC.SCORRES.EDULEVEL" Mandatory="No">
                    <def:WhereClauseRef WhereClauseOID="WC.SC.48924878"/>
                </ItemRef>
                <ItemRef ItemOID="IT.SC.SCORRES.EDUYRNUM" Mandatory="No">
                    <def:WhereClauseRef WhereClauseOID="WC.SC.e7173a71"/>
                </ItemRef>
            </def:ValueListDef>
            <def:ValueListDef OID="VL.SC.SCORRESU">
                <ItemRef ItemOID="IT.SC.SCORRESU.EDUYRNUM" Mandatory="No">
                    <def:WhereClauseRef WhereClauseOID="WC.SC.5fc4562e"/>
                </ItemRef>
            </def:ValueListDef>
            <def:ValueListDef OID="VL.VS.VSORRES">
                <ItemRef ItemOID="IT.VS.VSORRES.TEMP" Mandatory="No">
                    <def:WhereClauseRef WhereClauseOID="WC.VS.df8e6ed8"/>
                </ItemRef>
                <ItemRef ItemOID="IT.VS.VSORRES.WEIGHT" Mandatory="No">
                    <def:WhereClauseRef WhereClauseOID="WC.VS.362bc1cf"/>
                </ItemRef>
                <ItemRef ItemOID="IT.VS.VSORRES.HEIGHT" Mandatory="No">
                    <def:WhereClauseRef WhereClauseOID="WC.VS.22da90ca"/>
                </ItemRef>
                <ItemRef ItemOID="IT.VS.VSORRES.PULSE" Mandatory="No">
                    <def:WhereClauseRef WhereClauseOID="WC.VS.90269389"/>
                </ItemRef>
                <ItemRef ItemOID="IT.VS.VSORRES.RESP" Mandatory="No">
                    <def:WhereClauseRef WhereClauseOID="WC.VS.02e0f161"/>
                </ItemRef>
                <ItemRef ItemOID="IT.VS.VSORRES.BMI" Mandatory="No" MethodOID="MT.VS.VSORRES.BMI">
                    <def:WhereClauseRef WhereClauseOID="WC.VS.ba9d17a7"/>
                </ItemRef>
                <ItemRef ItemOID="IT.VS.VSORRES.SYSBP" Mandatory="No">
                    <def:WhereClauseRef WhereClauseOID="WC.VS.037b6848"/>
                </ItemRef>
                <ItemRef ItemOID="IT.VS.VSORRES.DIABP" Mandatory="No">
                    <def:WhereClauseRef WhereClauseOID="WC.VS.fe755a11"/>
                </ItemRef>
                <ItemRef ItemOID="IT.VS.VSORRES.HR" Mandatory="No">
                    <def:WhereClauseRef WhereClauseOID="WC.VS.324e0cc0"/>
                </ItemRef>
            </def:ValueListDef>
            <def:ValueListDef OID="VL.VS.VSORRESU">
                <ItemRef ItemOID="IT.VS.VSORRESU.TEMP" Mandatory="No">
                    <def:WhereClauseRef WhereClauseOID="WC.VS.dea56915"/>
                </ItemRef>
                <ItemRef ItemOID="IT.VS.VSORRESU.WEIGHT" Mandatory="No">
                    <def:WhereClauseRef WhereClauseOID="WC.VS.ef959fbb"/>
                </ItemRef>
                <ItemRef ItemOID="IT.VS.VSORRESU.HEIGHT" Mandatory="No">
                    <def:WhereClauseRef WhereClauseOID="WC.VS.97262f9f"/>
                </ItemRef>
                <ItemRef ItemOID="IT.VS.VSORRESU.PULSE" Mandatory="No">
                    <def:WhereClauseRef WhereClauseOID="WC.VS.2fad3005"/>
                </ItemRef>
                <ItemRef ItemOID="IT.VS.VSORRESU.RESP" Mandatory="No">
                    <def:WhereClauseRef WhereClauseOID="WC.VS.f296848d"/>
                </ItemRef>
                <ItemRef ItemOID="IT.VS.VSORRESU.BMI" Mandatory="No">
                    <def:WhereClauseRef WhereClauseOID="WC.VS.ca4251ba"/>
                </ItemRef>
                <ItemRef ItemOID="IT.VS.VSORRESU.SYSBP" Mandatory="No">
                    <def:WhereClauseRef WhereClauseOID="WC.VS.301c7ee3"/>
                </ItemRef>
                <ItemRef ItemOID="IT.VS.VSORRESU.DIABP" Mandatory="No">
                    <def:WhereClauseRef WhereClauseOID="WC.VS.714dfc07"/>
                </ItemRef>
                <ItemRef ItemOID="IT.VS.VSORRESU.HR" Mandatory="No">
                    <def:WhereClauseRef WhereClauseOID="WC.VS.5a9c1ab0"/>
                </ItemRef>
            </def:ValueListDef>
            <def:ValueListDef OID="VL.EG.EGORRES">
                <ItemRef ItemOID="IT.EG.EGORRES.INTP" Mandatory="No">
                    <def:WhereClauseRef WhereClauseOID="WC.EG.f60b99cb"/>
                </ItemRef>
                <ItemRef ItemOID="IT.EG.EGORRES.AVCOND" Mandatory="No">
                    <def:WhereClauseRef WhereClauseOID="WC.EG.d30401ba"/>
                </ItemRef>
                <ItemRef ItemOID="IT.EG.EGORRES.AXISVOLT" Mandatory="No">
                    <def:WhereClauseRef WhereClauseOID="WC.EG.0764363d"/>
                </ItemRef>
                <ItemRef ItemOID="IT.EG.EGORRES.CHYPTENL" Mandatory="No">
                    <def:WhereClauseRef WhereClauseOID="WC.EG.c7ca2c0d"/>
                </ItemRef>
                <ItemRef ItemOID="IT.EG.EGORRES.TECHQUAL" Mandatory="No">
                    <def:WhereClauseRef WhereClauseOID="WC.EG.0110957e"/>
                </ItemRef>
                <ItemRef ItemOID="IT.EG.EGORRES.IVTIACD" Mandatory="No">
                    <def:WhereClauseRef WhereClauseOID="WC.EG.7a2cbb17"/>
                </ItemRef>
                <ItemRef ItemOID="IT.EG.EGORRES.PACEMAKR" Mandatory="No">
                    <def:WhereClauseRef WhereClauseOID="WC.EG.c82f004b"/>
                </ItemRef>
                <ItemRef ItemOID="IT.EG.EGORRES.RHYNOS" Mandatory="No">
                    <def:WhereClauseRef WhereClauseOID="WC.EG.aaf51dd5"/>
                </ItemRef>
                <ItemRef ItemOID="IT.EG.EGORRES.SNRARRY" Mandatory="No">
                    <def:WhereClauseRef WhereClauseOID="WC.EG.0a478649"/>
                </ItemRef>
                <ItemRef ItemOID="IT.EG.EGORRES.SPRARRY" Mandatory="No">
                    <def:WhereClauseRef WhereClauseOID="WC.EG.44c12ce4"/>
                </ItemRef>
                <ItemRef ItemOID="IT.EG.EGORRES.SPRTARRY" Mandatory="No">
                    <def:WhereClauseRef WhereClauseOID="WC.EG.7c9fb72d"/>
                </ItemRef>
                <ItemRef ItemOID="IT.EG.EGORRES.VTARRY" Mandatory="No">
                    <def:WhereClauseRef WhereClauseOID="WC.EG.3a146a53"/>
                </ItemRef>
                <ItemRef ItemOID="IT.EG.EGORRES.VTTARRY" Mandatory="No">
                    <def:WhereClauseRef WhereClauseOID="WC.EG.5571a969"/>
                </ItemRef>
                <ItemRef ItemOID="IT.EG.EGORRES.PRAG" Mandatory="No">
                    <def:WhereClauseRef WhereClauseOID="WC.EG.13a9fd00"/>
                </ItemRef>
                <ItemRef ItemOID="IT.EG.EGORRES.QRSAG" Mandatory="No">
                    <def:WhereClauseRef WhereClauseOID="WC.EG.72304c3a"/>
                </ItemRef>
                <ItemRef ItemOID="IT.EG.EGORRES.QTAG" Mandatory="No">
                    <def:WhereClauseRef WhereClauseOID="WC.EG.6f155b1d"/>
                </ItemRef>
                <ItemRef ItemOID="IT.EG.EGORRES.QTCBAG" Mandatory="No">
                    <def:WhereClauseRef WhereClauseOID="WC.EG.dff815c6"/>
                </ItemRef>
                <ItemRef ItemOID="IT.EG.EGORRES.QTCFAG" Mandatory="No">
                    <def:WhereClauseRef WhereClauseOID="WC.EG.e967e1e7"/>
                </ItemRef>
                <ItemRef ItemOID="IT.EG.EGORRES.RRAG" Mandatory="No">
                    <def:WhereClauseRef WhereClauseOID="WC.EG.64f26102"/>
                </ItemRef>
                <ItemRef ItemOID="IT.EG.EGORRES.EGHRMN" Mandatory="No">
                    <def:WhereClauseRef WhereClauseOID="WC.EG.2ecbdce2"/>
                </ItemRef>
                <ItemRef ItemOID="IT.EG.EGORRES.QRS_AXIS" Mandatory="No">
                    <def:WhereClauseRef WhereClauseOID="WC.EG.9ce29aa6"/>
                </ItemRef>
            </def:ValueListDef>
            <def:ValueListDef OID="VL.EG.EGORRESU">
                <ItemRef ItemOID="IT.EG.EGORRESU.PRAG" Mandatory="No">
                    <def:WhereClauseRef WhereClauseOID="WC.EG.cec16291"/>
                </ItemRef>
                <ItemRef ItemOID="IT.EG.EGORRESU.QRSAG" Mandatory="No">
                    <def:WhereClauseRef WhereClauseOID="WC.EG.5a1ab0f5"/>
                </ItemRef>
                <ItemRef ItemOID="IT.EG.EGORRESU.QTAG" Mandatory="No">
                    <def:WhereClauseRef WhereClauseOID="WC.EG.ddb86367"/>
                </ItemRef>
                <ItemRef ItemOID="IT.EG.EGORRESU.QTCBAG" Mandatory="No">
                    <def:WhereClauseRef WhereClauseOID="WC.EG.e847517c"/>
                </ItemRef>
                <ItemRef ItemOID="IT.EG.EGORRESU.QTCFAG" Mandatory="No">
                    <def:WhereClauseRef WhereClauseOID="WC.EG.7f463007"/>
                </ItemRef>
                <ItemRef ItemOID="IT.EG.EGORRESU.RRAG" Mandatory="No">
                    <def:WhereClauseRef WhereClauseOID="WC.EG.3d1ba9c3"/>
                </ItemRef>
                <ItemRef ItemOID="IT.EG.EGORRESU.EGHRMN" Mandatory="No">
                    <def:WhereClauseRef WhereClauseOID="WC.EG.a40eb46d"/>
                </ItemRef>
                <ItemRef ItemOID="IT.EG.EGORRESU.QRS_AXIS" Mandatory="No">
                    <def:WhereClauseRef WhereClauseOID="WC.EG.02ebb46f"/>
                </ItemRef>
            </def:ValueListDef>
            <def:ValueListDef OID="VL.LB.LBORRES">
                <ItemRef ItemOID="IT.LB.LBORRES.HGB" Mandatory="No">
                    <def:WhereClauseRef WhereClauseOID="WC.LB.c192b07f"/>
                </ItemRef>
                <ItemRef ItemOID="IT.LB.LBORRES.HCT" Mandatory="No">
                    <def:WhereClauseRef WhereClauseOID="WC.LB.82b97100"/>
                </ItemRef>
                <ItemRef ItemOID="IT.LB.LBORRES.RBC" Mandatory="No">
                    <def:WhereClauseRef WhereClauseOID="WC.LB.87582e25"/>
                </ItemRef>
                <ItemRef ItemOID="IT.LB.LBORRES.MCH" Mandatory="No">
                    <def:WhereClauseRef WhereClauseOID="WC.LB.95f4de22"/>
                </ItemRef>
                <ItemRef ItemOID="IT.LB.LBORRES.MCHC" Mandatory="No">
                    <def:WhereClauseRef WhereClauseOID="WC.LB.92bd1f17"/>
                </ItemRef>
                <ItemRef ItemOID="IT.LB.LBORRES.MCV" Mandatory="No">
                    <def:WhereClauseRef WhereClauseOID="WC.LB.24c0e2bc"/>
                </ItemRef>
                <ItemRef ItemOID="IT.LB.LBORRES.WBC" Mandatory="No">
                    <def:WhereClauseRef WhereClauseOID="WC.LB.351df44b"/>
                </ItemRef>
                <ItemRef ItemOID="IT.LB.LBORRES.NEUTSG" Mandatory="No">
                    <def:WhereClauseRef WhereClauseOID="WC.LB.5f2a0bab"/>
                </ItemRef>
                <ItemRef ItemOID="IT.LB.LBORRES.NEUTB" Mandatory="No">
                    <def:WhereClauseRef WhereClauseOID="WC.LB.eea0ae49"/>
                </ItemRef>
                <ItemRef ItemOID="IT.LB.LBORRES.NEUT" Mandatory="No">
                    <def:WhereClauseRef WhereClauseOID="WC.LB.550c7a01"/>
                </ItemRef>
                <ItemRef ItemOID="IT.LB.LBORRES.MONO" Mandatory="No">
                    <def:WhereClauseRef WhereClauseOID="WC.LB.de4c119b"/>
                </ItemRef>
                <ItemRef ItemOID="IT.LB.LBORRES.EOS" Mandatory="No">
                    <def:WhereClauseRef WhereClauseOID="WC.LB.a5684311"/>
                </ItemRef>
                <ItemRef ItemOID="IT.LB.LBORRES.BASO" Mandatory="No">
                    <def:WhereClauseRef WhereClauseOID="WC.LB.7b86c15b"/>
                </ItemRef>
                <ItemRef ItemOID="IT.LB.LBORRES.PLAT" Mandatory="No">
                    <def:WhereClauseRef WhereClauseOID="WC.LB.3a9d73e1"/>
                </ItemRef>
                <ItemRef ItemOID="IT.LB.LBORRES.MICROCY" Mandatory="No">
                    <def:WhereClauseRef WhereClauseOID="WC.LB.ddc3319f"/>
                </ItemRef>
                <ItemRef ItemOID="IT.LB.LBORRES.MACROCY" Mandatory="No">
                    <def:WhereClauseRef WhereClauseOID="WC.LB.116f85e4"/>
                </ItemRef>
                <ItemRef ItemOID="IT.LB.LBORRES.ANISO" Mandatory="No">
                    <def:WhereClauseRef WhereClauseOID="WC.LB.84ceb0ad"/>
                </ItemRef>
                <ItemRef ItemOID="IT.LB.LBORRES.POIKILO" Mandatory="No">
                    <def:WhereClauseRef WhereClauseOID="WC.LB.b622c728"/>
                </ItemRef>
                <ItemRef ItemOID="IT.LB.LBORRES.POLYCHR" Mandatory="No">
                    <def:WhereClauseRef WhereClauseOID="WC.LB.87b1b367"/>
                </ItemRef>
                <ItemRef ItemOID="IT.LB.LBORRES.ALT" Mandatory="No">
                    <def:WhereClauseRef WhereClauseOID="WC.LB.5412b298"/>
                </ItemRef>
                <ItemRef ItemOID="IT.LB.LBORRES.ALB" Mandatory="No">
                    <def:WhereClauseRef WhereClauseOID="WC.LB.e42a3c09"/>
                </ItemRef>
                <ItemRef ItemOID="IT.LB.LBORRES.ALP" Mandatory="No">
                    <def:WhereClauseRef WhereClauseOID="WC.LB.cdac7fcc"/>
                </ItemRef>
                <ItemRef ItemOID="IT.LB.LBORRES.AST" Mandatory="No">
                    <def:WhereClauseRef WhereClauseOID="WC.LB.b9d7ddba"/>
                </ItemRef>
                <ItemRef ItemOID="IT.LB.LBORRES.CREAT" Mandatory="No">
                    <def:WhereClauseRef WhereClauseOID="WC.LB.969c1a6d"/>
                </ItemRef>
                <ItemRef ItemOID="IT.LB.LBORRES.K" Mandatory="No">
                    <def:WhereClauseRef WhereClauseOID="WC.LB.7ce691fd"/>
                </ItemRef>
                <ItemRef ItemOID="IT.LB.LBORRES.SODIUM" Mandatory="No">
                    <def:WhereClauseRef WhereClauseOID="WC.LB.88601b52"/>
                </ItemRef>
                <ItemRef ItemOID="IT.LB.LBORRES.UREAN" Mandatory="No">
                    <def:WhereClauseRef WhereClauseOID="WC.LB.42392cd1"/>
                </ItemRef>
                <ItemRef ItemOID="IT.LB.LBORRES.BICARB" Mandatory="No">
                    <def:WhereClauseRef WhereClauseOID="WC.LB.9279ec22"/>
                </ItemRef>
                <ItemRef ItemOID="IT.LB.LBORRES.CL" Mandatory="No">
                    <def:WhereClauseRef WhereClauseOID="WC.LB.8b779a3b"/>
                </ItemRef>
                <ItemRef ItemOID="IT.LB.LBORRES.BILI" Mandatory="No">
                    <def:WhereClauseRef WhereClauseOID="WC.LB.cfe14422"/>
                </ItemRef>
                <ItemRef ItemOID="IT.LB.LBORRES.GGT" Mandatory="No">
                    <def:WhereClauseRef WhereClauseOID="WC.LB.8285c765"/>
                </ItemRef>
                <ItemRef ItemOID="IT.LB.LBORRES.URATE" Mandatory="No">
                    <def:WhereClauseRef WhereClauseOID="WC.LB.37c7b4ba"/>
                </ItemRef>
                <ItemRef ItemOID="IT.LB.LBORRES.PHOS" Mandatory="No">
                    <def:WhereClauseRef WhereClauseOID="WC.LB.e4e81dc5"/>
                </ItemRef>
                <ItemRef ItemOID="IT.LB.LBORRES.CA" Mandatory="No">
                    <def:WhereClauseRef WhereClauseOID="WC.LB.470def9b"/>
                </ItemRef>
                <ItemRef ItemOID="IT.LB.LBORRES.GLUC" Mandatory="No">
                    <def:WhereClauseRef WhereClauseOID="WC.LB.c891c160"/>
                </ItemRef>
                <ItemRef ItemOID="IT.LB.LBORRES.PROT" Mandatory="No">
                    <def:WhereClauseRef WhereClauseOID="WC.LB.abcfd20c"/>
                </ItemRef>
                <ItemRef ItemOID="IT.LB.LBORRES.CHOL" Mandatory="No">
                    <def:WhereClauseRef WhereClauseOID="WC.LB.5a1bca67"/>
                </ItemRef>
                <ItemRef ItemOID="IT.LB.LBORRES.T3UP" Mandatory="No">
                    <def:WhereClauseRef WhereClauseOID="WC.LB.4226ee02"/>
                </ItemRef>
                <ItemRef ItemOID="IT.LB.LBORRES.T3" Mandatory="No">
                    <def:WhereClauseRef WhereClauseOID="WC.LB.df33e99e"/>
                </ItemRef>
                <ItemRef ItemOID="IT.LB.LBORRES.T4FR" Mandatory="No">
                    <def:WhereClauseRef WhereClauseOID="WC.LB.30f3d8b3"/>
                </ItemRef>
                <ItemRef ItemOID="IT.LB.LBORRES.T4FRIDX" Mandatory="No">
                    <def:WhereClauseRef WhereClauseOID="WC.LB.f59f4529"/>
                </ItemRef>
                <ItemRef ItemOID="IT.LB.LBORRES.TSH" Mandatory="No">
                    <def:WhereClauseRef WhereClauseOID="WC.LB.c54221c6"/>
                </ItemRef>
                <ItemRef ItemOID="IT.LB.LBORRES.VITB9" Mandatory="No">
                    <def:WhereClauseRef WhereClauseOID="WC.LB.cb02cad8"/>
                </ItemRef>
                <ItemRef ItemOID="IT.LB.LBORRES.VITB12" Mandatory="No">
                    <def:WhereClauseRef WhereClauseOID="WC.LB.d0f49556"/>
                </ItemRef>
                <ItemRef ItemOID="IT.LB.LBORRES.COLOR" Mandatory="No">
                    <def:WhereClauseRef WhereClauseOID="WC.LB.4987b41e"/>
                </ItemRef>
                <ItemRef ItemOID="IT.LB.LBORRES.SPGRAV" Mandatory="No">
                    <def:WhereClauseRef WhereClauseOID="WC.LB.cbf789d8"/>
                </ItemRef>
                <ItemRef ItemOID="IT.LB.LBORRES.KETONES" Mandatory="No">
                    <def:WhereClauseRef WhereClauseOID="WC.LB.3239d7a3"/>
                </ItemRef>
                <ItemRef ItemOID="IT.LB.LBORRES.UROBIL" Mandatory="No">
                    <def:WhereClauseRef WhereClauseOID="WC.LB.59366afe"/>
                </ItemRef>
                <ItemRef ItemOID="IT.LB.LBORRES.OCCBLD" Mandatory="No">
                    <def:WhereClauseRef WhereClauseOID="WC.LB.3adc4566"/>
                </ItemRef>
                <ItemRef ItemOID="IT.LB.LBORRES.NITRITE" Mandatory="No">
                    <def:WhereClauseRef WhereClauseOID="WC.LB.59074de1"/>
                </ItemRef>
                <ItemRef ItemOID="IT.LB.LBORRES.HBA1C" Mandatory="No">
                    <def:WhereClauseRef WhereClauseOID="WC.LB.c1765eee"/>
                </ItemRef>
                <ItemRef ItemOID="IT.LB.LBORRES.HBA1CHGB" Mandatory="No">
                    <def:WhereClauseRef WhereClauseOID="WC.LB.dd459ec6"/>
                </ItemRef>
            </def:ValueListDef>
            <def:ValueListDef OID="VL.LB.LBORRESU">
                <ItemRef ItemOID="IT.LB.LBORRESU.HGB" Mandatory="No">
                    <def:WhereClauseRef WhereClauseOID="WC.LB.e9a1c33d"/>
                </ItemRef>
                <ItemRef ItemOID="IT.LB.LBORRESU.HCT" Mandatory="No">
                    <def:WhereClauseRef WhereClauseOID="WC.LB.7f0975c7"/>
                </ItemRef>
                <ItemRef ItemOID="IT.LB.LBORRESU.RBC" Mandatory="No">
                    <def:WhereClauseRef WhereClauseOID="WC.LB.f7f1de35"/>
                </ItemRef>
                <ItemRef ItemOID="IT.LB.LBORRESU.MCH" Mandatory="No">
                    <def:WhereClauseRef WhereClauseOID="WC.LB.c32acb17"/>
                </ItemRef>
                <ItemRef ItemOID="IT.LB.LBORRESU.MCHC" Mandatory="No">
                    <def:WhereClauseRef WhereClauseOID="WC.LB.eb7f048a"/>
                </ItemRef>
                <ItemRef ItemOID="IT.LB.LBORRESU.MCV" Mandatory="No">
                    <def:WhereClauseRef WhereClauseOID="WC.LB.e881d4b5"/>
                </ItemRef>
                <ItemRef ItemOID="IT.LB.LBORRESU.WBC" Mandatory="No">
                    <def:WhereClauseRef WhereClauseOID="WC.LB.41785be6"/>
                </ItemRef>
                <ItemRef ItemOID="IT.LB.LBORRESU.NEUTSG" Mandatory="No">
                    <def:WhereClauseRef WhereClauseOID="WC.LB.a68e5eaa"/>
                </ItemRef>
                <ItemRef ItemOID="IT.LB.LBORRESU.NEUTB" Mandatory="No">
                    <def:WhereClauseRef WhereClauseOID="WC.LB.aad6dbd6"/>
                </ItemRef>
                <ItemRef ItemOID="IT.LB.LBORRESU.NEUT" Mandatory="No">
                    <def:WhereClauseRef WhereClauseOID="WC.LB.d13d6578"/>
                </ItemRef>
                <ItemRef ItemOID="IT.LB.LBORRESU.MONO" Mandatory="No">
                    <def:WhereClauseRef WhereClauseOID="WC.LB.00e6d228"/>
                </ItemRef>
                <ItemRef ItemOID="IT.LB.LBORRESU.EOS" Mandatory="No">
                    <def:WhereClauseRef WhereClauseOID="WC.LB.ef654de1"/>
                </ItemRef>
                <ItemRef ItemOID="IT.LB.LBORRESU.BASO" Mandatory="No">
                    <def:WhereClauseRef WhereClauseOID="WC.LB.b6fa6e8d"/>
                </ItemRef>
                <ItemRef ItemOID="IT.LB.LBORRESU.PLAT" Mandatory="No">
                    <def:WhereClauseRef WhereClauseOID="WC.LB.90eedf3b"/>
                </ItemRef>
                <ItemRef ItemOID="IT.LB.LBORRESU.ALT" Mandatory="No">
                    <def:WhereClauseRef WhereClauseOID="WC.LB.8914eb45"/>
                </ItemRef>
                <ItemRef ItemOID="IT.LB.LBORRESU.ALP" Mandatory="No">
                    <def:WhereClauseRef WhereClauseOID="WC.LB.6660e11c"/>
                </ItemRef>
                <ItemRef ItemOID="IT.LB.LBORRESU.AST" Mandatory="No">
                    <def:WhereClauseRef WhereClauseOID="WC.LB.37e389df"/>
                </ItemRef>
                <ItemRef ItemOID="IT.LB.LBORRESU.CREAT" Mandatory="No">
                    <def:WhereClauseRef WhereClauseOID="WC.LB.549f5ae4"/>
                </ItemRef>
                <ItemRef ItemOID="IT.LB.LBORRESU.K" Mandatory="No">
                    <def:WhereClauseRef WhereClauseOID="WC.LB.ee634517"/>
                </ItemRef>
                <ItemRef ItemOID="IT.LB.LBORRESU.SODIUM" Mandatory="No">
                    <def:WhereClauseRef WhereClauseOID="WC.LB.07a8daa1"/>
                </ItemRef>
                <ItemRef ItemOID="IT.LB.LBORRESU.UREAN" Mandatory="No">
                    <def:WhereClauseRef WhereClauseOID="WC.LB.91d1c3d5"/>
                </ItemRef>
                <ItemRef ItemOID="IT.LB.LBORRESU.BICARB" Mandatory="No">
                    <def:WhereClauseRef WhereClauseOID="WC.LB.9df0845c"/>
                </ItemRef>
                <ItemRef ItemOID="IT.LB.LBORRESU.CL" Mandatory="No">
                    <def:WhereClauseRef WhereClauseOID="WC.LB.cc8b6004"/>
                </ItemRef>
                <ItemRef ItemOID="IT.LB.LBORRESU.GGT" Mandatory="No">
                    <def:WhereClauseRef WhereClauseOID="WC.LB.3c564f36"/>
                </ItemRef>
                <ItemRef ItemOID="IT.LB.LBORRESU.URATE" Mandatory="No">
                    <def:WhereClauseRef WhereClauseOID="WC.LB.13fbb1a5"/>
                </ItemRef>
                <ItemRef ItemOID="IT.LB.LBORRESU.PHOS" Mandatory="No">
                    <def:WhereClauseRef WhereClauseOID="WC.LB.3749493c"/>
                </ItemRef>
                <ItemRef ItemOID="IT.LB.LBORRESU.CA" Mandatory="No">
                    <def:WhereClauseRef WhereClauseOID="WC.LB.38f9f39d"/>
                </ItemRef>
                <ItemRef ItemOID="IT.LB.LBORRESU.CHOL" Mandatory="No">
                    <def:WhereClauseRef WhereClauseOID="WC.LB.516f3664"/>
                </ItemRef>
                <ItemRef ItemOID="IT.LB.LBORRESU.T3UP" Mandatory="No">
                    <def:WhereClauseRef WhereClauseOID="WC.LB.dcbcbe57"/>
                </ItemRef>
                <ItemRef ItemOID="IT.LB.LBORRESU.T3" Mandatory="No">
                    <def:WhereClauseRef WhereClauseOID="WC.LB.b7b215a1"/>
                </ItemRef>
                <ItemRef ItemOID="IT.LB.LBORRESU.T4FR" Mandatory="No">
                    <def:WhereClauseRef WhereClauseOID="WC.LB.0f071538"/>
                </ItemRef>
                <ItemRef ItemOID="IT.LB.LBORRESU.T4FRIDX" Mandatory="No">
                    <def:WhereClauseRef WhereClauseOID="WC.LB.258e657c"/>
                </ItemRef>
                <ItemRef ItemOID="IT.LB.LBORRESU.TSH" Mandatory="No">
                    <def:WhereClauseRef WhereClauseOID="WC.LB.d675561c"/>
                </ItemRef>
                <ItemRef ItemOID="IT.LB.LBORRESU.VITB9" Mandatory="No">
                    <def:WhereClauseRef WhereClauseOID="WC.LB.e81938d6"/>
                </ItemRef>
                <ItemRef ItemOID="IT.LB.LBORRESU.VITB12" Mandatory="No">
                    <def:WhereClauseRef WhereClauseOID="WC.LB.54dda2d1"/>
                </ItemRef>
                <ItemRef ItemOID="IT.LB.LBORRESU.UROBIL" Mandatory="No">
                    <def:WhereClauseRef WhereClauseOID="WC.LB.e6a434ec"/>
                </ItemRef>
                <ItemRef ItemOID="IT.LB.LBORRESU.HBA1C" Mandatory="No">
                    <def:WhereClauseRef WhereClauseOID="WC.LB.9e9118c8"/>
                </ItemRef>
                <ItemRef ItemOID="IT.LB.LBORRESU.HBA1CHGB" Mandatory="No">
                    <def:WhereClauseRef WhereClauseOID="WC.LB.8644d9ca"/>
                </ItemRef>
            </def:ValueListDef>
            <def:ValueListDef OID="VL.MB.MBORRES">
                <ItemRef ItemOID="IT.MB.MBORRES.TPLAB" Mandatory="No">
                    <def:WhereClauseRef WhereClauseOID="WC.MB.49773274"/>
                </ItemRef>
                <ItemRef ItemOID="IT.MB.MBORRES.TPADNA" Mandatory="No">
                    <def:WhereClauseRef WhereClauseOID="WC.MB.e698c5a2"/>
                </ItemRef>
            </def:ValueListDef>
            <def:ValueListDef OID="VL.TS.TSPARMCD">
                <ItemRef ItemOID="IT.TS.TSPARMCD.ADAPT" Mandatory="No">
                    <def:WhereClauseRef WhereClauseOID="WC.TS.08ebd0ce"/>
                </ItemRef>
                <ItemRef ItemOID="IT.TS.TSPARMCD.AGEMIN" Mandatory="No">
                    <def:WhereClauseRef WhereClauseOID="WC.TS.a7d24f4a"/>
                </ItemRef>
                <ItemRef ItemOID="IT.TS.TSPARMCD.AGEMAX" Mandatory="No">
                    <def:WhereClauseRef WhereClauseOID="WC.TS.4ac86c98"/>
                </ItemRef>
                <ItemRef ItemOID="IT.TS.TSPARMCD.COMPTRT" Mandatory="No">
                    <def:WhereClauseRef WhereClauseOID="WC.TS.54cd02f1"/>
                </ItemRef>
                <ItemRef ItemOID="IT.TS.TSPARMCD.CRMDUR" Mandatory="No">
                    <def:WhereClauseRef WhereClauseOID="WC.TS.f9fa8745"/>
                </ItemRef>
                <ItemRef ItemOID="IT.TS.TSPARMCD.DOSE" Mandatory="No">
                    <def:WhereClauseRef WhereClauseOID="WC.TS.7fc6c3e6"/>
                </ItemRef>
                <ItemRef ItemOID="IT.TS.TSPARMCD.DOSFRQ" Mandatory="No">
                    <def:WhereClauseRef WhereClauseOID="WC.TS.5cd14c68"/>
                </ItemRef>
                <ItemRef ItemOID="IT.TS.TSPARMCD.DOSU" Mandatory="No">
                    <def:WhereClauseRef WhereClauseOID="WC.TS.4053f56c"/>
                </ItemRef>
                <ItemRef ItemOID="IT.TS.TSPARMCD.INDIC" Mandatory="No">
                    <def:WhereClauseRef WhereClauseOID="WC.TS.9cdae039"/>
                </ItemRef>
                <ItemRef ItemOID="IT.TS.TSPARMCD.INTMODEL" Mandatory="No">
                    <def:WhereClauseRef WhereClauseOID="WC.TS.2c83b5d9"/>
                </ItemRef>
                <ItemRef ItemOID="IT.TS.TSPARMCD.INTTYPE" Mandatory="No">
                    <def:WhereClauseRef WhereClauseOID="WC.TS.e3ae16cd"/>
                </ItemRef>
                <ItemRef ItemOID="IT.TS.TSPARMCD.NARMS" Mandatory="No">
                    <def:WhereClauseRef WhereClauseOID="WC.TS.89c0d243"/>
                </ItemRef>
                <ItemRef ItemOID="IT.TS.TSPARMCD.OBJPRIM" Mandatory="No">
                    <def:WhereClauseRef WhereClauseOID="WC.TS.7a056c75"/>
                </ItemRef>
                <ItemRef ItemOID="IT.TS.TSPARMCD.OBJSEC" Mandatory="No">
                    <def:WhereClauseRef WhereClauseOID="WC.TS.36721696"/>
                </ItemRef>
                <ItemRef ItemOID="IT.TS.TSPARMCD.OUTMSPRI" Mandatory="No">
                    <def:WhereClauseRef WhereClauseOID="WC.TS.d8b84608"/>
                </ItemRef>
                <ItemRef ItemOID="IT.TS.TSPARMCD.OUTMSSEC" Mandatory="No">
                    <def:WhereClauseRef WhereClauseOID="WC.TS.1d3cd461"/>
                </ItemRef>
                <ItemRef ItemOID="IT.TS.TSPARMCD.PLANSUB" Mandatory="No">
                    <def:WhereClauseRef WhereClauseOID="WC.TS.3a1c5c3c"/>
                </ItemRef>
                <ItemRef ItemOID="IT.TS.TSPARMCD.PTRTDUR" Mandatory="No">
                    <def:WhereClauseRef WhereClauseOID="WC.TS.2b2d70bc"/>
                </ItemRef>
                <ItemRef ItemOID="IT.TS.TSPARMCD.ROUTE" Mandatory="No">
                    <def:WhereClauseRef WhereClauseOID="WC.TS.3c4a8bf2"/>
                </ItemRef>
                <ItemRef ItemOID="IT.TS.TSPARMCD.SEXPOP" Mandatory="No">
                    <def:WhereClauseRef WhereClauseOID="WC.TS.4f0c74c2"/>
                </ItemRef>
                <ItemRef ItemOID="IT.TS.TSPARMCD.SPONSOR" Mandatory="No">
                    <def:WhereClauseRef WhereClauseOID="WC.TS.51236927"/>
                </ItemRef>
                <ItemRef ItemOID="IT.TS.TSPARMCD.STYPE" Mandatory="No">
                    <def:WhereClauseRef WhereClauseOID="WC.TS.f4cb41bb"/>
                </ItemRef>
                <ItemRef ItemOID="IT.TS.TSPARMCD.TBLIND" Mandatory="No">
                    <def:WhereClauseRef WhereClauseOID="WC.TS.9e101607"/>
                </ItemRef>
                <ItemRef ItemOID="IT.TS.TSPARMCD.THERAREA" Mandatory="No">
                    <def:WhereClauseRef WhereClauseOID="WC.TS.d8c1ac4c"/>
                </ItemRef>
                <ItemRef ItemOID="IT.TS.TSPARMCD.TINDTP" Mandatory="No">
                    <def:WhereClauseRef WhereClauseOID="WC.TS.e423672b"/>
                </ItemRef>
                <ItemRef ItemOID="IT.TS.TSPARMCD.TITLE" Mandatory="No">
                    <def:WhereClauseRef WhereClauseOID="WC.TS.43684533"/>
                </ItemRef>
                <ItemRef ItemOID="IT.TS.TSPARMCD.TPHASE" Mandatory="No">
                    <def:WhereClauseRef WhereClauseOID="WC.TS.22640600"/>
                </ItemRef>
                <ItemRef ItemOID="IT.TS.TSPARMCD.TRT" Mandatory="No">
                    <def:WhereClauseRef WhereClauseOID="WC.TS.1948fed3"/>
                </ItemRef>
                <ItemRef ItemOID="IT.TS.TSPARMCD.TTYPE" Mandatory="No">
                    <def:WhereClauseRef WhereClauseOID="WC.TS.29af0670"/>
                </ItemRef>
            </def:ValueListDef>
            <def:ValueListDef OID="VL.IE.IEORRES">
                <ItemRef ItemOID="IT.IE.IEORRES.IN01" Mandatory="No">
                    <def:WhereClauseRef WhereClauseOID="WC.IE.1d2bb25f"/>
                </ItemRef>
                <ItemRef ItemOID="IT.IE.IEORRES.IN02" Mandatory="No">
                    <def:WhereClauseRef WhereClauseOID="WC.IE.fa688bf3"/>
                </ItemRef>
                <ItemRef ItemOID="IT.IE.IEORRES.IN03" Mandatory="No">
                    <def:WhereClauseRef WhereClauseOID="WC.IE.f276b607"/>
                </ItemRef>
                <ItemRef ItemOID="IT.IE.IEORRES.IN04" Mandatory="No">
                    <def:WhereClauseRef WhereClauseOID="WC.IE.cd528448"/>
                </ItemRef>
                <ItemRef ItemOID="IT.IE.IEORRES.IN05" Mandatory="No">
                    <def:WhereClauseRef WhereClauseOID="WC.IE.c1db3fd3"/>
                </ItemRef>
                <ItemRef ItemOID="IT.IE.IEORRES.IN06" Mandatory="No">
                    <def:WhereClauseRef WhereClauseOID="WC.IE.c2ec614b"/>
                </ItemRef>
                <ItemRef ItemOID="IT.IE.IEORRES.IN07" Mandatory="No">
                    <def:WhereClauseRef WhereClauseOID="WC.IE.2ef341aa"/>
                </ItemRef>
                <ItemRef ItemOID="IT.IE.IEORRES.IN08" Mandatory="No">
                    <def:WhereClauseRef WhereClauseOID="WC.IE.5d85184b"/>
                </ItemRef>
                <ItemRef ItemOID="IT.IE.IEORRES.EX01" Mandatory="No">
                    <def:WhereClauseRef WhereClauseOID="WC.IE.8579104c"/>
                </ItemRef>
                <ItemRef ItemOID="IT.IE.IEORRES.EX02" Mandatory="No">
                    <def:WhereClauseRef WhereClauseOID="WC.IE.74eacc45"/>
                </ItemRef>
                <ItemRef ItemOID="IT.IE.IEORRES.EX03" Mandatory="No">
                    <def:WhereClauseRef WhereClauseOID="WC.IE.ce0e8d09"/>
                </ItemRef>
                <ItemRef ItemOID="IT.IE.IEORRES.EX04" Mandatory="No">
                    <def:WhereClauseRef WhereClauseOID="WC.IE.945bafbd"/>
                </ItemRef>
                <ItemRef ItemOID="IT.IE.IEORRES.EX05" Mandatory="No">
                    <def:WhereClauseRef WhereClauseOID="WC.IE.afbec960"/>
                </ItemRef>
                <ItemRef ItemOID="IT.IE.IEORRES.EX06" Mandatory="No">
                    <def:WhereClauseRef WhereClauseOID="WC.IE.cac0d3f4"/>
                </ItemRef>
                <ItemRef ItemOID="IT.IE.IEORRES.EX07" Mandatory="No">
                    <def:WhereClauseRef WhereClauseOID="WC.IE.cabd9be0"/>
                </ItemRef>
                <ItemRef ItemOID="IT.IE.IEORRES.EX08" Mandatory="No">
                    <def:WhereClauseRef WhereClauseOID="WC.IE.fbae7983"/>
                </ItemRef>
                <ItemRef ItemOID="IT.IE.IEORRES.EX09" Mandatory="No">
                    <def:WhereClauseRef WhereClauseOID="WC.IE.0952c014"/>
                </ItemRef>
                <ItemRef ItemOID="IT.IE.IEORRES.EX10" Mandatory="No">
                    <def:WhereClauseRef WhereClauseOID="WC.IE.5b8b02b2"/>
                </ItemRef>
                <ItemRef ItemOID="IT.IE.IEORRES.EX11" Mandatory="No">
                    <def:WhereClauseRef WhereClauseOID="WC.IE.70a941e7"/>
                </ItemRef>
                <ItemRef ItemOID="IT.IE.IEORRES.EX12" Mandatory="No">
                    <def:WhereClauseRef WhereClauseOID="WC.IE.611f5d7b"/>
                </ItemRef>
                <ItemRef ItemOID="IT.IE.IEORRES.EX13" Mandatory="No">
                    <def:WhereClauseRef WhereClauseOID="WC.IE.8abff918"/>
                </ItemRef>
                <ItemRef ItemOID="IT.IE.IEORRES.EX14" Mandatory="No">
                    <def:WhereClauseRef WhereClauseOID="WC.IE.b089a2a0"/>
                </ItemRef>
                <ItemRef ItemOID="IT.IE.IEORRES.EX15" Mandatory="No">
                    <def:WhereClauseRef WhereClauseOID="WC.IE.39cb2456"/>
                </ItemRef>
                <ItemRef ItemOID="IT.IE.IEORRES.EX16" Mandatory="No">
                    <def:WhereClauseRef WhereClauseOID="WC.IE.2cdb5c18"/>
                </ItemRef>
                <ItemRef ItemOID="IT.IE.IEORRES.EX17" Mandatory="No">
                    <def:WhereClauseRef WhereClauseOID="WC.IE.b415f3a9"/>
                </ItemRef>
                <ItemRef ItemOID="IT.IE.IEORRES.EX18" Mandatory="No">
                    <def:WhereClauseRef WhereClauseOID="WC.IE.5c29f970"/>
                </ItemRef>
                <ItemRef ItemOID="IT.IE.IEORRES.EX19" Mandatory="No">
                    <def:WhereClauseRef WhereClauseOID="WC.IE.9fe9a358"/>
                </ItemRef>
                <ItemRef ItemOID="IT.IE.IEORRES.EX20" Mandatory="No">
                    <def:WhereClauseRef WhereClauseOID="WC.IE.e36b210b"/>
                </ItemRef>
                <ItemRef ItemOID="IT.IE.IEORRES.EX21" Mandatory="No">
                    <def:WhereClauseRef WhereClauseOID="WC.IE.743b4fb5"/>
                </ItemRef>
                <ItemRef ItemOID="IT.IE.IEORRES.EX22" Mandatory="No">
                    <def:WhereClauseRef WhereClauseOID="WC.IE.76a82754"/>
                </ItemRef>
                <ItemRef ItemOID="IT.IE.IEORRES.EX23" Mandatory="No">
                    <def:WhereClauseRef WhereClauseOID="WC.IE.fbeb5a1e"/>
                </ItemRef>
            </def:ValueListDef>
            <def:WhereClauseDef OID="WC.SC.48924878">
                <RangeCheck SoftHard="Soft" def:ItemOID="IT.SC.SCTESTCD" Comparator="EQ">
                    <CheckValue>EDULEVEL</CheckValue>
                </RangeCheck>
            </def:WhereClauseDef>
            <def:WhereClauseDef OID="WC.SC.e7173a71">
                <RangeCheck SoftHard="Soft" def:ItemOID="IT.SC.SCTESTCD" Comparator="EQ">
                    <CheckValue>EDUYRNUM</CheckValue>
                </RangeCheck>
            </def:WhereClauseDef>
            <def:WhereClauseDef OID="WC.SC.5fc4562e">
                <RangeCheck SoftHard="Soft" def:ItemOID="IT.SC.SCTESTCD" Comparator="EQ">
                    <CheckValue>EDUYRNUM</CheckValue>
                </RangeCheck>
            </def:WhereClauseDef>
            <def:WhereClauseDef OID="WC.VS.df8e6ed8">
                <RangeCheck SoftHard="Soft" def:ItemOID="IT.VS.VSTESTCD" Comparator="EQ">
                    <CheckValue>TEMP</CheckValue>
                </RangeCheck>
                <RangeCheck SoftHard="Soft" def:ItemOID="IT.VS.VSLOC" Comparator="IN">
                    <CheckValue>AXILLA</CheckValue>
                    <CheckValue>EAR</CheckValue>
                    <CheckValue>FOREHEAD</CheckValue>
                    <CheckValue>ORAL CAVITY</CheckValue>
                    <CheckValue>RECTUM</CheckValue>
                </RangeCheck>
            </def:WhereClauseDef>
            <def:WhereClauseDef OID="WC.VS.362bc1cf">
                <RangeCheck SoftHard="Soft" def:ItemOID="IT.VS.VSTESTCD" Comparator="EQ">
                    <CheckValue>WEIGHT</CheckValue>
                </RangeCheck>
            </def:WhereClauseDef>
            <def:WhereClauseDef OID="WC.VS.22da90ca">
                <RangeCheck SoftHard="Soft" def:ItemOID="IT.VS.VSTESTCD" Comparator="EQ">
                    <CheckValue>HEIGHT</CheckValue>
                </RangeCheck>
            </def:WhereClauseDef>
            <def:WhereClauseDef OID="WC.VS.90269389">
                <RangeCheck SoftHard="Soft" def:ItemOID="IT.VS.VSTESTCD" Comparator="EQ">
                    <CheckValue>PULSE</CheckValue>
                </RangeCheck>
                <RangeCheck SoftHard="Soft" def:ItemOID="IT.VS.VSPOS" Comparator="IN">
                    <CheckValue>PRONE</CheckValue>
                    <CheckValue>SEMI-RECUMBENT</CheckValue>
                    <CheckValue>SITTING</CheckValue>
                    <CheckValue>STANDING</CheckValue>
                    <CheckValue>SUPINE</CheckValue>
                </RangeCheck>
                <RangeCheck SoftHard="Soft" def:ItemOID="IT.VS.VSLOC" Comparator="IN">
                    <CheckValue>BRACHIAL ARTERY</CheckValue>
                    <CheckValue>CAROTID ARTERY</CheckValue>
                    <CheckValue>CEREBRAL ARTERY</CheckValue>
                    <CheckValue>DORSALIS PEDIS ARTERY</CheckValue>
                    <CheckValue>FEMORAL ARTERY</CheckValue>
                    <CheckValue>RADIAL ARTERY</CheckValue>
                </RangeCheck>
                <RangeCheck SoftHard="Soft" def:ItemOID="IT.VS.VSLAT" Comparator="IN">
                    <CheckValue>LEFT</CheckValue>
                    <CheckValue>RIGHT</CheckValue>
                </RangeCheck>
            </def:WhereClauseDef>
            <def:WhereClauseDef OID="WC.VS.02e0f161">
                <RangeCheck SoftHard="Soft" def:ItemOID="IT.VS.VSTESTCD" Comparator="EQ">
                    <CheckValue>RESP</CheckValue>
                </RangeCheck>
            </def:WhereClauseDef>
            <def:WhereClauseDef OID="WC.VS.ba9d17a7">
                <RangeCheck SoftHard="Soft" def:ItemOID="IT.VS.VSTESTCD" Comparator="EQ">
                    <CheckValue>BMI</CheckValue>
                </RangeCheck>
            </def:WhereClauseDef>
            <def:WhereClauseDef OID="WC.VS.037b6848">
                <RangeCheck SoftHard="Soft" def:ItemOID="IT.VS.VSTESTCD" Comparator="EQ">
                    <CheckValue>SYSBP</CheckValue>
                </RangeCheck>
                <RangeCheck SoftHard="Soft" def:ItemOID="IT.VS.VSPOS" Comparator="IN">
                    <CheckValue>PRONE</CheckValue>
                    <CheckValue>SEMI-RECUMBENT</CheckValue>
                    <CheckValue>SITTING</CheckValue>
                    <CheckValue>STANDING</CheckValue>
                    <CheckValue>SUPINE</CheckValue>
                </RangeCheck>
                <RangeCheck SoftHard="Soft" def:ItemOID="IT.VS.VSLOC" Comparator="IN">
                    <CheckValue>BRACHIAL ARTERY</CheckValue>
                    <CheckValue>CAROTID ARTERY</CheckValue>
                    <CheckValue>DORSALIS PEDIS ARTERY</CheckValue>
                    <CheckValue>FEMORAL ARTERY</CheckValue>
                    <CheckValue>FINGER</CheckValue>
                    <CheckValue>RADIAL ARTERY</CheckValue>
                </RangeCheck>
                <RangeCheck SoftHard="Soft" def:ItemOID="IT.VS.VSLAT" Comparator="IN">
                    <CheckValue>LEFT</CheckValue>
                    <CheckValue>RIGHT</CheckValue>
                </RangeCheck>
            </def:WhereClauseDef>
            <def:WhereClauseDef OID="WC.VS.fe755a11">
                <RangeCheck SoftHard="Soft" def:ItemOID="IT.VS.VSTESTCD" Comparator="EQ">
                    <CheckValue>DIABP</CheckValue>
                </RangeCheck>
                <RangeCheck SoftHard="Soft" def:ItemOID="IT.VS.VSPOS" Comparator="IN">
                    <CheckValue>PRONE</CheckValue>
                    <CheckValue>SEMI-RECUMBENT</CheckValue>
                    <CheckValue>SITTING</CheckValue>
                    <CheckValue>STANDING</CheckValue>
                    <CheckValue>SUPINE</CheckValue>
                </RangeCheck>
                <RangeCheck SoftHard="Soft" def:ItemOID="IT.VS.VSLOC" Comparator="IN">
                    <CheckValue>BRACHIAL ARTERY</CheckValue>
                    <CheckValue>CAROTID ARTERY</CheckValue>
                    <CheckValue>DORSALIS PEDIS ARTERY</CheckValue>
                    <CheckValue>FEMORAL ARTERY</CheckValue>
                    <CheckValue>FINGER</CheckValue>
                    <CheckValue>RADIAL ARTERY</CheckValue>
                </RangeCheck>
                <RangeCheck SoftHard="Soft" def:ItemOID="IT.VS.VSLAT" Comparator="IN">
                    <CheckValue>LEFT</CheckValue>
                    <CheckValue>RIGHT</CheckValue>
                </RangeCheck>
            </def:WhereClauseDef>
            <def:WhereClauseDef OID="WC.VS.324e0cc0">
                <RangeCheck SoftHard="Soft" def:ItemOID="IT.VS.VSTESTCD" Comparator="EQ">
                    <CheckValue>HR</CheckValue>
                </RangeCheck>
                <RangeCheck SoftHard="Soft" def:ItemOID="IT.VS.VSPOS" Comparator="IN">
                    <CheckValue>PRONE</CheckValue>
                    <CheckValue>SEMI-RECUMBENT</CheckValue>
                    <CheckValue>SITTING</CheckValue>
                    <CheckValue>STANDING</CheckValue>
                    <CheckValue>SUPINE</CheckValue>
                </RangeCheck>
                <RangeCheck SoftHard="Soft" def:ItemOID="IT.VS.VSLOC" Comparator="IN">
                    <CheckValue>BRACHIAL ARTERY</CheckValue>
                    <CheckValue>CAROTID ARTERY</CheckValue>
                    <CheckValue>CEREBRAL ARTERY</CheckValue>
                    <CheckValue>DORSALIS PEDIS ARTERY</CheckValue>
                    <CheckValue>FEMORAL ARTERY</CheckValue>
                    <CheckValue>RADIAL ARTERY</CheckValue>
                </RangeCheck>
                <RangeCheck SoftHard="Soft" def:ItemOID="IT.VS.VSLAT" Comparator="IN">
                    <CheckValue>LEFT</CheckValue>
                    <CheckValue>RIGHT</CheckValue>
                </RangeCheck>
            </def:WhereClauseDef>
            <def:WhereClauseDef OID="WC.VS.dea56915">
                <RangeCheck SoftHard="Soft" def:ItemOID="IT.VS.VSTESTCD" Comparator="EQ">
                    <CheckValue>TEMP</CheckValue>
                </RangeCheck>
                <RangeCheck SoftHard="Soft" def:ItemOID="IT.VS.VSLOC" Comparator="IN">
                    <CheckValue>AXILLA</CheckValue>
                    <CheckValue>EAR</CheckValue>
                    <CheckValue>FOREHEAD</CheckValue>
                    <CheckValue>ORAL CAVITY</CheckValue>
                    <CheckValue>RECTUM</CheckValue>
                </RangeCheck>
            </def:WhereClauseDef>
            <def:WhereClauseDef OID="WC.VS.ef959fbb">
                <RangeCheck SoftHard="Soft" def:ItemOID="IT.VS.VSTESTCD" Comparator="EQ">
                    <CheckValue>WEIGHT</CheckValue>
                </RangeCheck>
            </def:WhereClauseDef>
            <def:WhereClauseDef OID="WC.VS.97262f9f">
                <RangeCheck SoftHard="Soft" def:ItemOID="IT.VS.VSTESTCD" Comparator="EQ">
                    <CheckValue>HEIGHT</CheckValue>
                </RangeCheck>
            </def:WhereClauseDef>
            <def:WhereClauseDef OID="WC.VS.2fad3005">
                <RangeCheck SoftHard="Soft" def:ItemOID="IT.VS.VSTESTCD" Comparator="EQ">
                    <CheckValue>PULSE</CheckValue>
                </RangeCheck>
                <RangeCheck SoftHard="Soft" def:ItemOID="IT.VS.VSPOS" Comparator="IN">
                    <CheckValue>PRONE</CheckValue>
                    <CheckValue>SEMI-RECUMBENT</CheckValue>
                    <CheckValue>SITTING</CheckValue>
                    <CheckValue>STANDING</CheckValue>
                    <CheckValue>SUPINE</CheckValue>
                </RangeCheck>
                <RangeCheck SoftHard="Soft" def:ItemOID="IT.VS.VSLOC" Comparator="IN">
                    <CheckValue>BRACHIAL ARTERY</CheckValue>
                    <CheckValue>CAROTID ARTERY</CheckValue>
                    <CheckValue>CEREBRAL ARTERY</CheckValue>
                    <CheckValue>DORSALIS PEDIS ARTERY</CheckValue>
                    <CheckValue>FEMORAL ARTERY</CheckValue>
                    <CheckValue>RADIAL ARTERY</CheckValue>
                </RangeCheck>
                <RangeCheck SoftHard="Soft" def:ItemOID="IT.VS.VSLAT" Comparator="IN">
                    <CheckValue>LEFT</CheckValue>
                    <CheckValue>RIGHT</CheckValue>
                </RangeCheck>
            </def:WhereClauseDef>
            <def:WhereClauseDef OID="WC.VS.f296848d">
                <RangeCheck SoftHard="Soft" def:ItemOID="IT.VS.VSTESTCD" Comparator="EQ">
                    <CheckValue>RESP</CheckValue>
                </RangeCheck>
            </def:WhereClauseDef>
            <def:WhereClauseDef OID="WC.VS.ca4251ba">
                <RangeCheck SoftHard="Soft" def:ItemOID="IT.VS.VSTESTCD" Comparator="EQ">
                    <CheckValue>BMI</CheckValue>
                </RangeCheck>
            </def:WhereClauseDef>
            <def:WhereClauseDef OID="WC.VS.301c7ee3">
                <RangeCheck SoftHard="Soft" def:ItemOID="IT.VS.VSTESTCD" Comparator="EQ">
                    <CheckValue>SYSBP</CheckValue>
                </RangeCheck>
                <RangeCheck SoftHard="Soft" def:ItemOID="IT.VS.VSPOS" Comparator="IN">
                    <CheckValue>PRONE</CheckValue>
                    <CheckValue>SEMI-RECUMBENT</CheckValue>
                    <CheckValue>SITTING</CheckValue>
                    <CheckValue>STANDING</CheckValue>
                    <CheckValue>SUPINE</CheckValue>
                </RangeCheck>
                <RangeCheck SoftHard="Soft" def:ItemOID="IT.VS.VSLOC" Comparator="IN">
                    <CheckValue>BRACHIAL ARTERY</CheckValue>
                    <CheckValue>CAROTID ARTERY</CheckValue>
                    <CheckValue>DORSALIS PEDIS ARTERY</CheckValue>
                    <CheckValue>FEMORAL ARTERY</CheckValue>
                    <CheckValue>FINGER</CheckValue>
                    <CheckValue>RADIAL ARTERY</CheckValue>
                </RangeCheck>
                <RangeCheck SoftHard="Soft" def:ItemOID="IT.VS.VSLAT" Comparator="IN">
                    <CheckValue>LEFT</CheckValue>
                    <CheckValue>RIGHT</CheckValue>
                </RangeCheck>
            </def:WhereClauseDef>
            <def:WhereClauseDef OID="WC.VS.714dfc07">
                <RangeCheck SoftHard="Soft" def:ItemOID="IT.VS.VSTESTCD" Comparator="EQ">
                    <CheckValue>DIABP</CheckValue>
                </RangeCheck>
                <RangeCheck SoftHard="Soft" def:ItemOID="IT.VS.VSPOS" Comparator="IN">
                    <CheckValue>PRONE</CheckValue>
                    <CheckValue>SEMI-RECUMBENT</CheckValue>
                    <CheckValue>SITTING</CheckValue>
                    <CheckValue>STANDING</CheckValue>
                    <CheckValue>SUPINE</CheckValue>
                </RangeCheck>
                <RangeCheck SoftHard="Soft" def:ItemOID="IT.VS.VSLOC" Comparator="IN">
                    <CheckValue>BRACHIAL ARTERY</CheckValue>
                    <CheckValue>CAROTID ARTERY</CheckValue>
                    <CheckValue>DORSALIS PEDIS ARTERY</CheckValue>
                    <CheckValue>FEMORAL ARTERY</CheckValue>
                    <CheckValue>FINGER</CheckValue>
                    <CheckValue>RADIAL ARTERY</CheckValue>
                </RangeCheck>
                <RangeCheck SoftHard="Soft" def:ItemOID="IT.VS.VSLAT" Comparator="IN">
                    <CheckValue>LEFT</CheckValue>
                    <CheckValue>RIGHT</CheckValue>
                </RangeCheck>
            </def:WhereClauseDef>
            <def:WhereClauseDef OID="WC.VS.5a9c1ab0">
                <RangeCheck SoftHard="Soft" def:ItemOID="IT.VS.VSTESTCD" Comparator="EQ">
                    <CheckValue>HR</CheckValue>
                </RangeCheck>
                <RangeCheck SoftHard="Soft" def:ItemOID="IT.VS.VSPOS" Comparator="IN">
                    <CheckValue>PRONE</CheckValue>
                    <CheckValue>SEMI-RECUMBENT</CheckValue>
                    <CheckValue>SITTING</CheckValue>
                    <CheckValue>STANDING</CheckValue>
                    <CheckValue>SUPINE</CheckValue>
                </RangeCheck>
                <RangeCheck SoftHard="Soft" def:ItemOID="IT.VS.VSLOC" Comparator="IN">
                    <CheckValue>BRACHIAL ARTERY</CheckValue>
                    <CheckValue>CAROTID ARTERY</CheckValue>
                    <CheckValue>CEREBRAL ARTERY</CheckValue>
                    <CheckValue>DORSALIS PEDIS ARTERY</CheckValue>
                    <CheckValue>FEMORAL ARTERY</CheckValue>
                    <CheckValue>RADIAL ARTERY</CheckValue>
                </RangeCheck>
                <RangeCheck SoftHard="Soft" def:ItemOID="IT.VS.VSLAT" Comparator="IN">
                    <CheckValue>LEFT</CheckValue>
                    <CheckValue>RIGHT</CheckValue>
                </RangeCheck>
            </def:WhereClauseDef>
            <def:WhereClauseDef OID="WC.EG.f60b99cb">
                <RangeCheck SoftHard="Soft" def:ItemOID="IT.EG.EGTESTCD" Comparator="EQ">
                    <CheckValue>INTP</CheckValue>
                </RangeCheck>
                <RangeCheck SoftHard="Soft" def:ItemOID="IT.EG.EGEVAL" Comparator="IN">
                    <CheckValue>ADJUDICATION COMMITTEE</CheckValue>
                    <CheckValue>INDEPENDENT ASSESSOR</CheckValue>
                    <CheckValue>INVESTIGATOR</CheckValue>
                    <CheckValue>VENDOR</CheckValue>
                </RangeCheck>
            </def:WhereClauseDef>
            <def:WhereClauseDef OID="WC.EG.d30401ba">
                <RangeCheck SoftHard="Soft" def:ItemOID="IT.EG.EGTESTCD" Comparator="EQ">
                    <CheckValue>AVCOND</CheckValue>
                </RangeCheck>
                <RangeCheck SoftHard="Soft" def:ItemOID="IT.EG.EGEVAL" Comparator="IN">
                    <CheckValue>ADJUDICATION COMMITTEE</CheckValue>
                    <CheckValue>INDEPENDENT ASSESSOR</CheckValue>
                    <CheckValue>INVESTIGATOR</CheckValue>
                    <CheckValue>VENDOR</CheckValue>
                </RangeCheck>
            </def:WhereClauseDef>
            <def:WhereClauseDef OID="WC.EG.0764363d">
                <RangeCheck SoftHard="Soft" def:ItemOID="IT.EG.EGTESTCD" Comparator="EQ">
                    <CheckValue>AXISVOLT</CheckValue>
                </RangeCheck>
                <RangeCheck SoftHard="Soft" def:ItemOID="IT.EG.EGEVAL" Comparator="IN">
                    <CheckValue>ADJUDICATION COMMITTEE</CheckValue>
                    <CheckValue>INDEPENDENT ASSESSOR</CheckValue>
                    <CheckValue>INVESTIGATOR</CheckValue>
                    <CheckValue>VENDOR</CheckValue>
                </RangeCheck>
            </def:WhereClauseDef>
            <def:WhereClauseDef OID="WC.EG.c7ca2c0d">
                <RangeCheck SoftHard="Soft" def:ItemOID="IT.EG.EGTESTCD" Comparator="EQ">
                    <CheckValue>CHYPTENL</CheckValue>
                </RangeCheck>
                <RangeCheck SoftHard="Soft" def:ItemOID="IT.EG.EGEVAL" Comparator="IN">
                    <CheckValue>ADJUDICATION COMMITTEE</CheckValue>
                    <CheckValue>INDEPENDENT ASSESSOR</CheckValue>
                    <CheckValue>INVESTIGATOR</CheckValue>
                    <CheckValue>VENDOR</CheckValue>
                </RangeCheck>
            </def:WhereClauseDef>
            <def:WhereClauseDef OID="WC.EG.0110957e">
                <RangeCheck SoftHard="Soft" def:ItemOID="IT.EG.EGTESTCD" Comparator="EQ">
                    <CheckValue>TECHQUAL</CheckValue>
                </RangeCheck>
                <RangeCheck SoftHard="Soft" def:ItemOID="IT.EG.EGEVAL" Comparator="IN">
                    <CheckValue>ADJUDICATION COMMITTEE</CheckValue>
                    <CheckValue>INDEPENDENT ASSESSOR</CheckValue>
                    <CheckValue>INVESTIGATOR</CheckValue>
                    <CheckValue>VENDOR</CheckValue>
                </RangeCheck>
            </def:WhereClauseDef>
            <def:WhereClauseDef OID="WC.EG.7a2cbb17">
                <RangeCheck SoftHard="Soft" def:ItemOID="IT.EG.EGTESTCD" Comparator="EQ">
                    <CheckValue>IVTIACD</CheckValue>
                </RangeCheck>
                <RangeCheck SoftHard="Soft" def:ItemOID="IT.EG.EGEVAL" Comparator="IN">
                    <CheckValue>ADJUDICATION COMMITTEE</CheckValue>
                    <CheckValue>INDEPENDENT ASSESSOR</CheckValue>
                    <CheckValue>INVESTIGATOR</CheckValue>
                    <CheckValue>VENDOR</CheckValue>
                </RangeCheck>
            </def:WhereClauseDef>
            <def:WhereClauseDef OID="WC.EG.c82f004b">
                <RangeCheck SoftHard="Soft" def:ItemOID="IT.EG.EGTESTCD" Comparator="EQ">
                    <CheckValue>PACEMAKR</CheckValue>
                </RangeCheck>
                <RangeCheck SoftHard="Soft" def:ItemOID="IT.EG.EGEVAL" Comparator="IN">
                    <CheckValue>ADJUDICATION COMMITTEE</CheckValue>
                    <CheckValue>INDEPENDENT ASSESSOR</CheckValue>
                    <CheckValue>INVESTIGATOR</CheckValue>
                    <CheckValue>VENDOR</CheckValue>
                </RangeCheck>
            </def:WhereClauseDef>
            <def:WhereClauseDef OID="WC.EG.aaf51dd5">
                <RangeCheck SoftHard="Soft" def:ItemOID="IT.EG.EGTESTCD" Comparator="EQ">
                    <CheckValue>RHYNOS</CheckValue>
                </RangeCheck>
                <RangeCheck SoftHard="Soft" def:ItemOID="IT.EG.EGEVAL" Comparator="IN">
                    <CheckValue>ADJUDICATION COMMITTEE</CheckValue>
                    <CheckValue>INDEPENDENT ASSESSOR</CheckValue>
                    <CheckValue>INVESTIGATOR</CheckValue>
                    <CheckValue>VENDOR</CheckValue>
                </RangeCheck>
            </def:WhereClauseDef>
            <def:WhereClauseDef OID="WC.EG.0a478649">
                <RangeCheck SoftHard="Soft" def:ItemOID="IT.EG.EGTESTCD" Comparator="EQ">
                    <CheckValue>SNRARRY</CheckValue>
                </RangeCheck>
                <RangeCheck SoftHard="Soft" def:ItemOID="IT.EG.EGEVAL" Comparator="IN">
                    <CheckValue>ADJUDICATION COMMITTEE</CheckValue>
                    <CheckValue>INDEPENDENT ASSESSOR</CheckValue>
                    <CheckValue>INVESTIGATOR</CheckValue>
                    <CheckValue>VENDOR</CheckValue>
                </RangeCheck>
            </def:WhereClauseDef>
            <def:WhereClauseDef OID="WC.EG.44c12ce4">
                <RangeCheck SoftHard="Soft" def:ItemOID="IT.EG.EGTESTCD" Comparator="EQ">
                    <CheckValue>SPRARRY</CheckValue>
                </RangeCheck>
                <RangeCheck SoftHard="Soft" def:ItemOID="IT.EG.EGEVAL" Comparator="IN">
                    <CheckValue>ADJUDICATION COMMITTEE</CheckValue>
                    <CheckValue>INDEPENDENT ASSESSOR</CheckValue>
                    <CheckValue>INVESTIGATOR</CheckValue>
                    <CheckValue>VENDOR</CheckValue>
                </RangeCheck>
            </def:WhereClauseDef>
            <def:WhereClauseDef OID="WC.EG.7c9fb72d">
                <RangeCheck SoftHard="Soft" def:ItemOID="IT.EG.EGTESTCD" Comparator="EQ">
                    <CheckValue>SPRTARRY</CheckValue>
                </RangeCheck>
                <RangeCheck SoftHard="Soft" def:ItemOID="IT.EG.EGEVAL" Comparator="IN">
                    <CheckValue>ADJUDICATION COMMITTEE</CheckValue>
                    <CheckValue>INDEPENDENT ASSESSOR</CheckValue>
                    <CheckValue>INVESTIGATOR</CheckValue>
                    <CheckValue>VENDOR</CheckValue>
                </RangeCheck>
            </def:WhereClauseDef>
            <def:WhereClauseDef OID="WC.EG.3a146a53">
                <RangeCheck SoftHard="Soft" def:ItemOID="IT.EG.EGTESTCD" Comparator="EQ">
                    <CheckValue>VTARRY</CheckValue>
                </RangeCheck>
                <RangeCheck SoftHard="Soft" def:ItemOID="IT.EG.EGEVAL" Comparator="IN">
                    <CheckValue>ADJUDICATION COMMITTEE</CheckValue>
                    <CheckValue>INDEPENDENT ASSESSOR</CheckValue>
                    <CheckValue>INVESTIGATOR</CheckValue>
                    <CheckValue>VENDOR</CheckValue>
                </RangeCheck>
            </def:WhereClauseDef>
            <def:WhereClauseDef OID="WC.EG.5571a969">
                <RangeCheck SoftHard="Soft" def:ItemOID="IT.EG.EGTESTCD" Comparator="EQ">
                    <CheckValue>VTTARRY</CheckValue>
                </RangeCheck>
                <RangeCheck SoftHard="Soft" def:ItemOID="IT.EG.EGEVAL" Comparator="IN">
                    <CheckValue>ADJUDICATION COMMITTEE</CheckValue>
                    <CheckValue>INDEPENDENT ASSESSOR</CheckValue>
                    <CheckValue>INVESTIGATOR</CheckValue>
                    <CheckValue>VENDOR</CheckValue>
                </RangeCheck>
            </def:WhereClauseDef>
            <def:WhereClauseDef OID="WC.EG.13a9fd00">
                <RangeCheck SoftHard="Soft" def:ItemOID="IT.EG.EGTESTCD" Comparator="EQ">
                    <CheckValue>PRAG</CheckValue>
                </RangeCheck>
                <RangeCheck SoftHard="Soft" def:ItemOID="IT.EG.EGEVAL" Comparator="IN">
                    <CheckValue>ADJUDICATION COMMITTEE</CheckValue>
                    <CheckValue>INDEPENDENT ASSESSOR</CheckValue>
                    <CheckValue>INVESTIGATOR</CheckValue>
                    <CheckValue>VENDOR</CheckValue>
                </RangeCheck>
            </def:WhereClauseDef>
            <def:WhereClauseDef OID="WC.EG.72304c3a">
                <RangeCheck SoftHard="Soft" def:ItemOID="IT.EG.EGTESTCD" Comparator="EQ">
                    <CheckValue>QRSAG</CheckValue>
                </RangeCheck>
                <RangeCheck SoftHard="Soft" def:ItemOID="IT.EG.EGEVAL" Comparator="IN">
                    <CheckValue>ADJUDICATION COMMITTEE</CheckValue>
                    <CheckValue>INDEPENDENT ASSESSOR</CheckValue>
                    <CheckValue>INVESTIGATOR</CheckValue>
                    <CheckValue>VENDOR</CheckValue>
                </RangeCheck>
            </def:WhereClauseDef>
            <def:WhereClauseDef OID="WC.EG.6f155b1d">
                <RangeCheck SoftHard="Soft" def:ItemOID="IT.EG.EGTESTCD" Comparator="EQ">
                    <CheckValue>QTAG</CheckValue>
                </RangeCheck>
                <RangeCheck SoftHard="Soft" def:ItemOID="IT.EG.EGEVAL" Comparator="IN">
                    <CheckValue>ADJUDICATION COMMITTEE</CheckValue>
                    <CheckValue>INDEPENDENT ASSESSOR</CheckValue>
                    <CheckValue>INVESTIGATOR</CheckValue>
                    <CheckValue>VENDOR</CheckValue>
                </RangeCheck>
            </def:WhereClauseDef>
            <def:WhereClauseDef OID="WC.EG.dff815c6">
                <RangeCheck SoftHard="Soft" def:ItemOID="IT.EG.EGTESTCD" Comparator="EQ">
                    <CheckValue>QTCBAG</CheckValue>
                </RangeCheck>
                <RangeCheck SoftHard="Soft" def:ItemOID="IT.EG.EGEVAL" Comparator="IN">
                    <CheckValue>ADJUDICATION COMMITTEE</CheckValue>
                    <CheckValue>INDEPENDENT ASSESSOR</CheckValue>
                    <CheckValue>INVESTIGATOR</CheckValue>
                    <CheckValue>VENDOR</CheckValue>
                </RangeCheck>
            </def:WhereClauseDef>
            <def:WhereClauseDef OID="WC.EG.e967e1e7">
                <RangeCheck SoftHard="Soft" def:ItemOID="IT.EG.EGTESTCD" Comparator="EQ">
                    <CheckValue>QTCFAG</CheckValue>
                </RangeCheck>
                <RangeCheck SoftHard="Soft" def:ItemOID="IT.EG.EGEVAL" Comparator="IN">
                    <CheckValue>ADJUDICATION COMMITTEE</CheckValue>
                    <CheckValue>INDEPENDENT ASSESSOR</CheckValue>
                    <CheckValue>INVESTIGATOR</CheckValue>
                    <CheckValue>VENDOR</CheckValue>
                </RangeCheck>
            </def:WhereClauseDef>
            <def:WhereClauseDef OID="WC.EG.64f26102">
                <RangeCheck SoftHard="Soft" def:ItemOID="IT.EG.EGTESTCD" Comparator="EQ">
                    <CheckValue>RRAG</CheckValue>
                </RangeCheck>
                <RangeCheck SoftHard="Soft" def:ItemOID="IT.EG.EGEVAL" Comparator="IN">
                    <CheckValue>ADJUDICATION COMMITTEE</CheckValue>
                    <CheckValue>INDEPENDENT ASSESSOR</CheckValue>
                    <CheckValue>INVESTIGATOR</CheckValue>
                    <CheckValue>VENDOR</CheckValue>
                </RangeCheck>
            </def:WhereClauseDef>
            <def:WhereClauseDef OID="WC.EG.2ecbdce2">
                <RangeCheck SoftHard="Soft" def:ItemOID="IT.EG.EGTESTCD" Comparator="EQ">
                    <CheckValue>EGHRMN</CheckValue>
                </RangeCheck>
                <RangeCheck SoftHard="Soft" def:ItemOID="IT.EG.EGEVAL" Comparator="IN">
                    <CheckValue>ADJUDICATION COMMITTEE</CheckValue>
                    <CheckValue>INDEPENDENT ASSESSOR</CheckValue>
                    <CheckValue>INVESTIGATOR</CheckValue>
                    <CheckValue>VENDOR</CheckValue>
                </RangeCheck>
            </def:WhereClauseDef>
            <def:WhereClauseDef OID="WC.EG.9ce29aa6">
                <RangeCheck SoftHard="Soft" def:ItemOID="IT.EG.EGTESTCD" Comparator="EQ">
                    <CheckValue>QRS_AXIS</CheckValue>
                </RangeCheck>
                <RangeCheck SoftHard="Soft" def:ItemOID="IT.EG.EGEVAL" Comparator="IN">
                    <CheckValue>ADJUDICATION COMMITTEE</CheckValue>
                    <CheckValue>INDEPENDENT ASSESSOR</CheckValue>
                    <CheckValue>INVESTIGATOR</CheckValue>
                    <CheckValue>VENDOR</CheckValue>
                </RangeCheck>
            </def:WhereClauseDef>
            <def:WhereClauseDef OID="WC.EG.cec16291">
                <RangeCheck SoftHard="Soft" def:ItemOID="IT.EG.EGTESTCD" Comparator="EQ">
                    <CheckValue>PRAG</CheckValue>
                </RangeCheck>
                <RangeCheck SoftHard="Soft" def:ItemOID="IT.EG.EGEVAL" Comparator="IN">
                    <CheckValue>ADJUDICATION COMMITTEE</CheckValue>
                    <CheckValue>INDEPENDENT ASSESSOR</CheckValue>
                    <CheckValue>INVESTIGATOR</CheckValue>
                    <CheckValue>VENDOR</CheckValue>
                </RangeCheck>
            </def:WhereClauseDef>
            <def:WhereClauseDef OID="WC.EG.5a1ab0f5">
                <RangeCheck SoftHard="Soft" def:ItemOID="IT.EG.EGTESTCD" Comparator="EQ">
                    <CheckValue>QRSAG</CheckValue>
                </RangeCheck>
                <RangeCheck SoftHard="Soft" def:ItemOID="IT.EG.EGEVAL" Comparator="IN">
                    <CheckValue>ADJUDICATION COMMITTEE</CheckValue>
                    <CheckValue>INDEPENDENT ASSESSOR</CheckValue>
                    <CheckValue>INVESTIGATOR</CheckValue>
                    <CheckValue>VENDOR</CheckValue>
                </RangeCheck>
            </def:WhereClauseDef>
            <def:WhereClauseDef OID="WC.EG.ddb86367">
                <RangeCheck SoftHard="Soft" def:ItemOID="IT.EG.EGTESTCD" Comparator="EQ">
                    <CheckValue>QTAG</CheckValue>
                </RangeCheck>
                <RangeCheck SoftHard="Soft" def:ItemOID="IT.EG.EGEVAL" Comparator="IN">
                    <CheckValue>ADJUDICATION COMMITTEE</CheckValue>
                    <CheckValue>INDEPENDENT ASSESSOR</CheckValue>
                    <CheckValue>INVESTIGATOR</CheckValue>
                    <CheckValue>VENDOR</CheckValue>
                </RangeCheck>
            </def:WhereClauseDef>
            <def:WhereClauseDef OID="WC.EG.e847517c">
                <RangeCheck SoftHard="Soft" def:ItemOID="IT.EG.EGTESTCD" Comparator="EQ">
                    <CheckValue>QTCBAG</CheckValue>
                </RangeCheck>
                <RangeCheck SoftHard="Soft" def:ItemOID="IT.EG.EGEVAL" Comparator="IN">
                    <CheckValue>ADJUDICATION COMMITTEE</CheckValue>
                    <CheckValue>INDEPENDENT ASSESSOR</CheckValue>
                    <CheckValue>INVESTIGATOR</CheckValue>
                    <CheckValue>VENDOR</CheckValue>
                </RangeCheck>
            </def:WhereClauseDef>
            <def:WhereClauseDef OID="WC.EG.7f463007">
                <RangeCheck SoftHard="Soft" def:ItemOID="IT.EG.EGTESTCD" Comparator="EQ">
                    <CheckValue>QTCFAG</CheckValue>
                </RangeCheck>
                <RangeCheck SoftHard="Soft" def:ItemOID="IT.EG.EGEVAL" Comparator="IN">
                    <CheckValue>ADJUDICATION COMMITTEE</CheckValue>
                    <CheckValue>INDEPENDENT ASSESSOR</CheckValue>
                    <CheckValue>INVESTIGATOR</CheckValue>
                    <CheckValue>VENDOR</CheckValue>
                </RangeCheck>
            </def:WhereClauseDef>
            <def:WhereClauseDef OID="WC.EG.3d1ba9c3">
                <RangeCheck SoftHard="Soft" def:ItemOID="IT.EG.EGTESTCD" Comparator="EQ">
                    <CheckValue>RRAG</CheckValue>
                </RangeCheck>
                <RangeCheck SoftHard="Soft" def:ItemOID="IT.EG.EGEVAL" Comparator="IN">
                    <CheckValue>ADJUDICATION COMMITTEE</CheckValue>
                    <CheckValue>INDEPENDENT ASSESSOR</CheckValue>
                    <CheckValue>INVESTIGATOR</CheckValue>
                    <CheckValue>VENDOR</CheckValue>
                </RangeCheck>
            </def:WhereClauseDef>
            <def:WhereClauseDef OID="WC.EG.a40eb46d">
                <RangeCheck SoftHard="Soft" def:ItemOID="IT.EG.EGTESTCD" Comparator="EQ">
                    <CheckValue>EGHRMN</CheckValue>
                </RangeCheck>
                <RangeCheck SoftHard="Soft" def:ItemOID="IT.EG.EGEVAL" Comparator="IN">
                    <CheckValue>ADJUDICATION COMMITTEE</CheckValue>
                    <CheckValue>INDEPENDENT ASSESSOR</CheckValue>
                    <CheckValue>INVESTIGATOR</CheckValue>
                    <CheckValue>VENDOR</CheckValue>
                </RangeCheck>
            </def:WhereClauseDef>
            <def:WhereClauseDef OID="WC.EG.02ebb46f">
                <RangeCheck SoftHard="Soft" def:ItemOID="IT.EG.EGTESTCD" Comparator="EQ">
                    <CheckValue>QRS_AXIS</CheckValue>
                </RangeCheck>
                <RangeCheck SoftHard="Soft" def:ItemOID="IT.EG.EGEVAL" Comparator="IN">
                    <CheckValue>ADJUDICATION COMMITTEE</CheckValue>
                    <CheckValue>INDEPENDENT ASSESSOR</CheckValue>
                    <CheckValue>INVESTIGATOR</CheckValue>
                    <CheckValue>VENDOR</CheckValue>
                </RangeCheck>
            </def:WhereClauseDef>
            <def:WhereClauseDef OID="WC.LB.c192b07f">
                <RangeCheck SoftHard="Soft" def:ItemOID="IT.LB.LBTESTCD" Comparator="EQ">
                    <CheckValue>HGB</CheckValue>
                </RangeCheck>
                <RangeCheck SoftHard="Soft" def:ItemOID="IT.LB.LBSPEC" Comparator="EQ">
                    <CheckValue>BLOOD</CheckValue>
                </RangeCheck>
                <RangeCheck SoftHard="Soft" def:ItemOID="IT.LB.LBMETHOD" Comparator="EQ">
                    <CheckValue>DIPSTICK MEASUREMENT METHOD</CheckValue>
                </RangeCheck>
            </def:WhereClauseDef>
            <def:WhereClauseDef OID="WC.LB.82b97100">
                <RangeCheck SoftHard="Soft" def:ItemOID="IT.LB.LBTESTCD" Comparator="EQ">
                    <CheckValue>HCT</CheckValue>
                </RangeCheck>
                <RangeCheck SoftHard="Soft" def:ItemOID="IT.LB.LBSPEC" Comparator="EQ">
                    <CheckValue>BLOOD</CheckValue>
                </RangeCheck>
            </def:WhereClauseDef>
            <def:WhereClauseDef OID="WC.LB.87582e25">
                <RangeCheck SoftHard="Soft" def:ItemOID="IT.LB.LBTESTCD" Comparator="EQ">
                    <CheckValue>RBC</CheckValue>
                </RangeCheck>
                <RangeCheck SoftHard="Soft" def:ItemOID="IT.LB.LBSPEC" Comparator="EQ">
                    <CheckValue>BLOOD</CheckValue>
                </RangeCheck>
            </def:WhereClauseDef>
            <def:WhereClauseDef OID="WC.LB.95f4de22">
                <RangeCheck SoftHard="Soft" def:ItemOID="IT.LB.LBTESTCD" Comparator="EQ">
                    <CheckValue>MCH</CheckValue>
                </RangeCheck>
                <RangeCheck SoftHard="Soft" def:ItemOID="IT.LB.LBSPEC" Comparator="EQ">
                    <CheckValue>ERYTHROCYTES</CheckValue>
                </RangeCheck>
            </def:WhereClauseDef>
            <def:WhereClauseDef OID="WC.LB.92bd1f17">
                <RangeCheck SoftHard="Soft" def:ItemOID="IT.LB.LBTESTCD" Comparator="EQ">
                    <CheckValue>MCHC</CheckValue>
                </RangeCheck>
                <RangeCheck SoftHard="Soft" def:ItemOID="IT.LB.LBSPEC" Comparator="EQ">
                    <CheckValue>ERYTHROCYTES</CheckValue>
                </RangeCheck>
            </def:WhereClauseDef>
            <def:WhereClauseDef OID="WC.LB.24c0e2bc">
                <RangeCheck SoftHard="Soft" def:ItemOID="IT.LB.LBTESTCD" Comparator="EQ">
                    <CheckValue>MCV</CheckValue>
                </RangeCheck>
                <RangeCheck SoftHard="Soft" def:ItemOID="IT.LB.LBSPEC" Comparator="EQ">
                    <CheckValue>ERYTHROCYTES</CheckValue>
                </RangeCheck>
            </def:WhereClauseDef>
            <def:WhereClauseDef OID="WC.LB.351df44b">
                <RangeCheck SoftHard="Soft" def:ItemOID="IT.LB.LBTESTCD" Comparator="EQ">
                    <CheckValue>WBC</CheckValue>
                </RangeCheck>
                <RangeCheck SoftHard="Soft" def:ItemOID="IT.LB.LBSPEC" Comparator="EQ">
                    <CheckValue>BLOOD</CheckValue>
                </RangeCheck>
            </def:WhereClauseDef>
            <def:WhereClauseDef OID="WC.LB.5f2a0bab">
                <RangeCheck SoftHard="Soft" def:ItemOID="IT.LB.LBTESTCD" Comparator="EQ">
                    <CheckValue>NEUTSG</CheckValue>
                </RangeCheck>
                <RangeCheck SoftHard="Soft" def:ItemOID="IT.LB.LBSPEC" Comparator="EQ">
                    <CheckValue>BLOOD</CheckValue>
                </RangeCheck>
            </def:WhereClauseDef>
            <def:WhereClauseDef OID="WC.LB.eea0ae49">
                <RangeCheck SoftHard="Soft" def:ItemOID="IT.LB.LBTESTCD" Comparator="EQ">
                    <CheckValue>NEUTB</CheckValue>
                </RangeCheck>
                <RangeCheck SoftHard="Soft" def:ItemOID="IT.LB.LBSPEC" Comparator="EQ">
                    <CheckValue>BLOOD</CheckValue>
                </RangeCheck>
            </def:WhereClauseDef>
            <def:WhereClauseDef OID="WC.LB.550c7a01">
                <RangeCheck SoftHard="Soft" def:ItemOID="IT.LB.LBTESTCD" Comparator="EQ">
                    <CheckValue>NEUT</CheckValue>
                </RangeCheck>
                <RangeCheck SoftHard="Soft" def:ItemOID="IT.LB.LBSPEC" Comparator="EQ">
                    <CheckValue>BLOOD</CheckValue>
                </RangeCheck>
            </def:WhereClauseDef>
            <def:WhereClauseDef OID="WC.LB.de4c119b">
                <RangeCheck SoftHard="Soft" def:ItemOID="IT.LB.LBTESTCD" Comparator="EQ">
                    <CheckValue>MONO</CheckValue>
                </RangeCheck>
                <RangeCheck SoftHard="Soft" def:ItemOID="IT.LB.LBSPEC" Comparator="EQ">
                    <CheckValue>BLOOD</CheckValue>
                </RangeCheck>
            </def:WhereClauseDef>
            <def:WhereClauseDef OID="WC.LB.a5684311">
                <RangeCheck SoftHard="Soft" def:ItemOID="IT.LB.LBTESTCD" Comparator="EQ">
                    <CheckValue>EOS</CheckValue>
                </RangeCheck>
                <RangeCheck SoftHard="Soft" def:ItemOID="IT.LB.LBSPEC" Comparator="EQ">
                    <CheckValue>BLOOD</CheckValue>
                </RangeCheck>
            </def:WhereClauseDef>
            <def:WhereClauseDef OID="WC.LB.7b86c15b">
                <RangeCheck SoftHard="Soft" def:ItemOID="IT.LB.LBTESTCD" Comparator="EQ">
                    <CheckValue>BASO</CheckValue>
                </RangeCheck>
                <RangeCheck SoftHard="Soft" def:ItemOID="IT.LB.LBSPEC" Comparator="EQ">
                    <CheckValue>BLOOD</CheckValue>
                </RangeCheck>
            </def:WhereClauseDef>
            <def:WhereClauseDef OID="WC.LB.3a9d73e1">
                <RangeCheck SoftHard="Soft" def:ItemOID="IT.LB.LBTESTCD" Comparator="EQ">
                    <CheckValue>PLAT</CheckValue>
                </RangeCheck>
                <RangeCheck SoftHard="Soft" def:ItemOID="IT.LB.LBSPEC" Comparator="EQ">
                    <CheckValue>BLOOD</CheckValue>
                </RangeCheck>
            </def:WhereClauseDef>
            <def:WhereClauseDef OID="WC.LB.ddc3319f">
                <RangeCheck SoftHard="Soft" def:ItemOID="IT.LB.LBTESTCD" Comparator="EQ">
                    <CheckValue>MICROCY</CheckValue>
                </RangeCheck>
                <RangeCheck SoftHard="Soft" def:ItemOID="IT.LB.LBSPEC" Comparator="EQ">
                    <CheckValue>URINE SEDIMENT</CheckValue>
                </RangeCheck>
            </def:WhereClauseDef>
            <def:WhereClauseDef OID="WC.LB.116f85e4">
                <RangeCheck SoftHard="Soft" def:ItemOID="IT.LB.LBTESTCD" Comparator="EQ">
                    <CheckValue>MACROCY</CheckValue>
                </RangeCheck>
                <RangeCheck SoftHard="Soft" def:ItemOID="IT.LB.LBSPEC" Comparator="EQ">
                    <CheckValue>URINE SEDIMENT</CheckValue>
                </RangeCheck>
            </def:WhereClauseDef>
            <def:WhereClauseDef OID="WC.LB.84ceb0ad">
                <RangeCheck SoftHard="Soft" def:ItemOID="IT.LB.LBTESTCD" Comparator="EQ">
                    <CheckValue>ANISO</CheckValue>
                </RangeCheck>
                <RangeCheck SoftHard="Soft" def:ItemOID="IT.LB.LBSPEC" Comparator="EQ">
                    <CheckValue>BLOOD</CheckValue>
                </RangeCheck>
            </def:WhereClauseDef>
            <def:WhereClauseDef OID="WC.LB.b622c728">
                <RangeCheck SoftHard="Soft" def:ItemOID="IT.LB.LBTESTCD" Comparator="EQ">
                    <CheckValue>POIKILO</CheckValue>
                </RangeCheck>
                <RangeCheck SoftHard="Soft" def:ItemOID="IT.LB.LBSPEC" Comparator="EQ">
                    <CheckValue>BLOOD</CheckValue>
                </RangeCheck>
            </def:WhereClauseDef>
            <def:WhereClauseDef OID="WC.LB.87b1b367">
                <RangeCheck SoftHard="Soft" def:ItemOID="IT.LB.LBTESTCD" Comparator="EQ">
                    <CheckValue>POLYCHR</CheckValue>
                </RangeCheck>
                <RangeCheck SoftHard="Soft" def:ItemOID="IT.LB.LBSPEC" Comparator="EQ">
                    <CheckValue>BLOOD</CheckValue>
                </RangeCheck>
            </def:WhereClauseDef>
            <def:WhereClauseDef OID="WC.LB.5412b298">
                <RangeCheck SoftHard="Soft" def:ItemOID="IT.LB.LBTESTCD" Comparator="EQ">
                    <CheckValue>ALT</CheckValue>
                </RangeCheck>
                <RangeCheck SoftHard="Soft" def:ItemOID="IT.LB.LBSPEC" Comparator="EQ">
                    <CheckValue>SERUM OR PLASMA</CheckValue>
                </RangeCheck>
            </def:WhereClauseDef>
            <def:WhereClauseDef OID="WC.LB.e42a3c09">
                <RangeCheck SoftHard="Soft" def:ItemOID="IT.LB.LBTESTCD" Comparator="EQ">
                    <CheckValue>ALB</CheckValue>
                </RangeCheck>
                <RangeCheck SoftHard="Soft" def:ItemOID="IT.LB.LBSPEC" Comparator="EQ">
                    <CheckValue>URINE</CheckValue>
                </RangeCheck>
            </def:WhereClauseDef>
            <def:WhereClauseDef OID="WC.LB.cdac7fcc">
                <RangeCheck SoftHard="Soft" def:ItemOID="IT.LB.LBTESTCD" Comparator="EQ">
                    <CheckValue>ALP</CheckValue>
                </RangeCheck>
                <RangeCheck SoftHard="Soft" def:ItemOID="IT.LB.LBSPEC" Comparator="EQ">
                    <CheckValue>SERUM OR PLASMA</CheckValue>
                </RangeCheck>
            </def:WhereClauseDef>
            <def:WhereClauseDef OID="WC.LB.b9d7ddba">
                <RangeCheck SoftHard="Soft" def:ItemOID="IT.LB.LBTESTCD" Comparator="EQ">
                    <CheckValue>AST</CheckValue>
                </RangeCheck>
                <RangeCheck SoftHard="Soft" def:ItemOID="IT.LB.LBSPEC" Comparator="EQ">
                    <CheckValue>SERUM OR PLASMA</CheckValue>
                </RangeCheck>
            </def:WhereClauseDef>
            <def:WhereClauseDef OID="WC.LB.969c1a6d">
                <RangeCheck SoftHard="Soft" def:ItemOID="IT.LB.LBTESTCD" Comparator="EQ">
                    <CheckValue>CREAT</CheckValue>
                </RangeCheck>
                <RangeCheck SoftHard="Soft" def:ItemOID="IT.LB.LBSPEC" Comparator="EQ">
                    <CheckValue>URINE</CheckValue>
                </RangeCheck>
            </def:WhereClauseDef>
            <def:WhereClauseDef OID="WC.LB.7ce691fd">
                <RangeCheck SoftHard="Soft" def:ItemOID="IT.LB.LBTESTCD" Comparator="EQ">
                    <CheckValue>K</CheckValue>
                </RangeCheck>
                <RangeCheck SoftHard="Soft" def:ItemOID="IT.LB.LBSPEC" Comparator="EQ">
                    <CheckValue>URINE</CheckValue>
                </RangeCheck>
            </def:WhereClauseDef>
            <def:WhereClauseDef OID="WC.LB.88601b52">
                <RangeCheck SoftHard="Soft" def:ItemOID="IT.LB.LBTESTCD" Comparator="EQ">
                    <CheckValue>SODIUM</CheckValue>
                </RangeCheck>
                <RangeCheck SoftHard="Soft" def:ItemOID="IT.LB.LBSPEC" Comparator="EQ">
                    <CheckValue>URINE</CheckValue>
                </RangeCheck>
            </def:WhereClauseDef>
            <def:WhereClauseDef OID="WC.LB.42392cd1">
                <RangeCheck SoftHard="Soft" def:ItemOID="IT.LB.LBTESTCD" Comparator="EQ">
                    <CheckValue>UREAN</CheckValue>
                </RangeCheck>
                <RangeCheck SoftHard="Soft" def:ItemOID="IT.LB.LBSPEC" Comparator="EQ">
                    <CheckValue>SERUM OR PLASMA</CheckValue>
                </RangeCheck>
            </def:WhereClauseDef>
            <def:WhereClauseDef OID="WC.LB.9279ec22">
                <RangeCheck SoftHard="Soft" def:ItemOID="IT.LB.LBTESTCD" Comparator="EQ">
                    <CheckValue>BICARB</CheckValue>
                </RangeCheck>
                <RangeCheck SoftHard="Soft" def:ItemOID="IT.LB.LBSPEC" Comparator="EQ">
                    <CheckValue>BLOOD</CheckValue>
                </RangeCheck>
            </def:WhereClauseDef>
            <def:WhereClauseDef OID="WC.LB.8b779a3b">
                <RangeCheck SoftHard="Soft" def:ItemOID="IT.LB.LBTESTCD" Comparator="EQ">
                    <CheckValue>CL</CheckValue>
                </RangeCheck>
                <RangeCheck SoftHard="Soft" def:ItemOID="IT.LB.LBSPEC" Comparator="EQ">
                    <CheckValue>SERUM OR PLASMA</CheckValue>
                </RangeCheck>
            </def:WhereClauseDef>
            <def:WhereClauseDef OID="WC.LB.cfe14422">
                <RangeCheck SoftHard="Soft" def:ItemOID="IT.LB.LBTESTCD" Comparator="EQ">
                    <CheckValue>BILI</CheckValue>
                </RangeCheck>
                <RangeCheck SoftHard="Soft" def:ItemOID="IT.LB.LBSPEC" Comparator="EQ">
                    <CheckValue>URINE</CheckValue>
                </RangeCheck>
            </def:WhereClauseDef>
            <def:WhereClauseDef OID="WC.LB.8285c765">
                <RangeCheck SoftHard="Soft" def:ItemOID="IT.LB.LBTESTCD" Comparator="EQ">
                    <CheckValue>GGT</CheckValue>
                </RangeCheck>
                <RangeCheck SoftHard="Soft" def:ItemOID="IT.LB.LBSPEC" Comparator="EQ">
                    <CheckValue>SERUM OR PLASMA</CheckValue>
                </RangeCheck>
            </def:WhereClauseDef>
            <def:WhereClauseDef OID="WC.LB.37c7b4ba">
                <RangeCheck SoftHard="Soft" def:ItemOID="IT.LB.LBTESTCD" Comparator="EQ">
                    <CheckValue>URATE</CheckValue>
                </RangeCheck>
                <RangeCheck SoftHard="Soft" def:ItemOID="IT.LB.LBSPEC" Comparator="EQ">
                    <CheckValue>SERUM OR PLASMA</CheckValue>
                </RangeCheck>
            </def:WhereClauseDef>
            <def:WhereClauseDef OID="WC.LB.e4e81dc5">
                <RangeCheck SoftHard="Soft" def:ItemOID="IT.LB.LBTESTCD" Comparator="EQ">
                    <CheckValue>PHOS</CheckValue>
                </RangeCheck>
                <RangeCheck SoftHard="Soft" def:ItemOID="IT.LB.LBSPEC" Comparator="EQ">
                    <CheckValue>SERUM OR PLASMA</CheckValue>
                </RangeCheck>
            </def:WhereClauseDef>
            <def:WhereClauseDef OID="WC.LB.470def9b">
                <RangeCheck SoftHard="Soft" def:ItemOID="IT.LB.LBTESTCD" Comparator="EQ">
                    <CheckValue>CA</CheckValue>
                </RangeCheck>
                <RangeCheck SoftHard="Soft" def:ItemOID="IT.LB.LBSPEC" Comparator="EQ">
                    <CheckValue>SERUM OR PLASMA</CheckValue>
                </RangeCheck>
            </def:WhereClauseDef>
            <def:WhereClauseDef OID="WC.LB.c891c160">
                <RangeCheck SoftHard="Soft" def:ItemOID="IT.LB.LBTESTCD" Comparator="EQ">
                    <CheckValue>GLUC</CheckValue>
                </RangeCheck>
                <RangeCheck SoftHard="Soft" def:ItemOID="IT.LB.LBSPEC" Comparator="EQ">
                    <CheckValue>URINE</CheckValue>
                </RangeCheck>
            </def:WhereClauseDef>
            <def:WhereClauseDef OID="WC.LB.abcfd20c">
                <RangeCheck SoftHard="Soft" def:ItemOID="IT.LB.LBTESTCD" Comparator="EQ">
                    <CheckValue>PROT</CheckValue>
                </RangeCheck>
                <RangeCheck SoftHard="Soft" def:ItemOID="IT.LB.LBSPEC" Comparator="EQ">
                    <CheckValue>URINE</CheckValue>
                </RangeCheck>
            </def:WhereClauseDef>
            <def:WhereClauseDef OID="WC.LB.5a1bca67">
                <RangeCheck SoftHard="Soft" def:ItemOID="IT.LB.LBTESTCD" Comparator="EQ">
                    <CheckValue>CHOL</CheckValue>
                </RangeCheck>
                <RangeCheck SoftHard="Soft" def:ItemOID="IT.LB.LBSPEC" Comparator="EQ">
                    <CheckValue>SERUM OR PLASMA</CheckValue>
                </RangeCheck>
            </def:WhereClauseDef>
            <def:WhereClauseDef OID="WC.LB.4226ee02">
                <RangeCheck SoftHard="Soft" def:ItemOID="IT.LB.LBTESTCD" Comparator="EQ">
                    <CheckValue>T3UP</CheckValue>
                </RangeCheck>
                <RangeCheck SoftHard="Soft" def:ItemOID="IT.LB.LBSPEC" Comparator="EQ">
                    <CheckValue>SERUM OR PLASMA</CheckValue>
                </RangeCheck>
            </def:WhereClauseDef>
            <def:WhereClauseDef OID="WC.LB.df33e99e">
                <RangeCheck SoftHard="Soft" def:ItemOID="IT.LB.LBTESTCD" Comparator="EQ">
                    <CheckValue>T3</CheckValue>
                </RangeCheck>
                <RangeCheck SoftHard="Soft" def:ItemOID="IT.LB.LBSPEC" Comparator="EQ">
                    <CheckValue>SERUM OR PLASMA</CheckValue>
                </RangeCheck>
            </def:WhereClauseDef>
            <def:WhereClauseDef OID="WC.LB.30f3d8b3">
                <RangeCheck SoftHard="Soft" def:ItemOID="IT.LB.LBTESTCD" Comparator="EQ">
                    <CheckValue>T4FR</CheckValue>
                </RangeCheck>
                <RangeCheck SoftHard="Soft" def:ItemOID="IT.LB.LBSPEC" Comparator="EQ">
                    <CheckValue>SERUM OR PLASMA</CheckValue>
                </RangeCheck>
            </def:WhereClauseDef>
            <def:WhereClauseDef OID="WC.LB.f59f4529">
                <RangeCheck SoftHard="Soft" def:ItemOID="IT.LB.LBTESTCD" Comparator="EQ">
                    <CheckValue>T4FRIDX</CheckValue>
                </RangeCheck>
                <RangeCheck SoftHard="Soft" def:ItemOID="IT.LB.LBSPEC" Comparator="EQ">
                    <CheckValue>SERUM OR PLASMA</CheckValue>
                </RangeCheck>
            </def:WhereClauseDef>
            <def:WhereClauseDef OID="WC.LB.c54221c6">
                <RangeCheck SoftHard="Soft" def:ItemOID="IT.LB.LBTESTCD" Comparator="EQ">
                    <CheckValue>TSH</CheckValue>
                </RangeCheck>
                <RangeCheck SoftHard="Soft" def:ItemOID="IT.LB.LBSPEC" Comparator="EQ">
                    <CheckValue>SERUM OR PLASMA</CheckValue>
                </RangeCheck>
            </def:WhereClauseDef>
            <def:WhereClauseDef OID="WC.LB.cb02cad8">
                <RangeCheck SoftHard="Soft" def:ItemOID="IT.LB.LBTESTCD" Comparator="EQ">
                    <CheckValue>VITB9</CheckValue>
                </RangeCheck>
                <RangeCheck SoftHard="Soft" def:ItemOID="IT.LB.LBSPEC" Comparator="EQ">
                    <CheckValue>SERUM OR PLASMA</CheckValue>
                </RangeCheck>
            </def:WhereClauseDef>
            <def:WhereClauseDef OID="WC.LB.d0f49556">
                <RangeCheck SoftHard="Soft" def:ItemOID="IT.LB.LBTESTCD" Comparator="EQ">
                    <CheckValue>VITB12</CheckValue>
                </RangeCheck>
                <RangeCheck SoftHard="Soft" def:ItemOID="IT.LB.LBSPEC" Comparator="EQ">
                    <CheckValue>SERUM OR PLASMA</CheckValue>
                </RangeCheck>
            </def:WhereClauseDef>
            <def:WhereClauseDef OID="WC.LB.4987b41e">
                <RangeCheck SoftHard="Soft" def:ItemOID="IT.LB.LBTESTCD" Comparator="EQ">
                    <CheckValue>COLOR</CheckValue>
                </RangeCheck>
                <RangeCheck SoftHard="Soft" def:ItemOID="IT.LB.LBSPEC" Comparator="EQ">
                    <CheckValue>URINE</CheckValue>
                </RangeCheck>
            </def:WhereClauseDef>
            <def:WhereClauseDef OID="WC.LB.cbf789d8">
                <RangeCheck SoftHard="Soft" def:ItemOID="IT.LB.LBTESTCD" Comparator="EQ">
                    <CheckValue>SPGRAV</CheckValue>
                </RangeCheck>
                <RangeCheck SoftHard="Soft" def:ItemOID="IT.LB.LBSPEC" Comparator="EQ">
                    <CheckValue>URINE</CheckValue>
                </RangeCheck>
            </def:WhereClauseDef>
            <def:WhereClauseDef OID="WC.LB.3239d7a3">
                <RangeCheck SoftHard="Soft" def:ItemOID="IT.LB.LBTESTCD" Comparator="EQ">
                    <CheckValue>KETONES</CheckValue>
                </RangeCheck>
                <RangeCheck SoftHard="Soft" def:ItemOID="IT.LB.LBSPEC" Comparator="EQ">
                    <CheckValue>URINE</CheckValue>
                </RangeCheck>
            </def:WhereClauseDef>
            <def:WhereClauseDef OID="WC.LB.59366afe">
                <RangeCheck SoftHard="Soft" def:ItemOID="IT.LB.LBTESTCD" Comparator="EQ">
                    <CheckValue>UROBIL</CheckValue>
                </RangeCheck>
                <RangeCheck SoftHard="Soft" def:ItemOID="IT.LB.LBSPEC" Comparator="EQ">
                    <CheckValue>URINE</CheckValue>
                </RangeCheck>
            </def:WhereClauseDef>
            <def:WhereClauseDef OID="WC.LB.3adc4566">
                <RangeCheck SoftHard="Soft" def:ItemOID="IT.LB.LBTESTCD" Comparator="EQ">
                    <CheckValue>OCCBLD</CheckValue>
                </RangeCheck>
                <RangeCheck SoftHard="Soft" def:ItemOID="IT.LB.LBSPEC" Comparator="EQ">
                    <CheckValue>STOOL</CheckValue>
                </RangeCheck>
            </def:WhereClauseDef>
            <def:WhereClauseDef OID="WC.LB.59074de1">
                <RangeCheck SoftHard="Soft" def:ItemOID="IT.LB.LBTESTCD" Comparator="EQ">
                    <CheckValue>NITRITE</CheckValue>
                </RangeCheck>
                <RangeCheck SoftHard="Soft" def:ItemOID="IT.LB.LBSPEC" Comparator="EQ">
                    <CheckValue>URINE</CheckValue>
                </RangeCheck>
            </def:WhereClauseDef>
            <def:WhereClauseDef OID="WC.LB.c1765eee">
                <RangeCheck SoftHard="Soft" def:ItemOID="IT.LB.LBTESTCD" Comparator="EQ">
                    <CheckValue>HBA1C</CheckValue>
                </RangeCheck>
                <RangeCheck SoftHard="Soft" def:ItemOID="IT.LB.LBSPEC" Comparator="EQ">
                    <CheckValue>BLOOD</CheckValue>
                </RangeCheck>
            </def:WhereClauseDef>
            <def:WhereClauseDef OID="WC.LB.dd459ec6">
                <RangeCheck SoftHard="Soft" def:ItemOID="IT.LB.LBTESTCD" Comparator="EQ">
                    <CheckValue>HBA1CHGB</CheckValue>
                </RangeCheck>
                <RangeCheck SoftHard="Soft" def:ItemOID="IT.LB.LBSPEC" Comparator="EQ">
                    <CheckValue>BLOOD</CheckValue>
                </RangeCheck>
            </def:WhereClauseDef>
            <def:WhereClauseDef OID="WC.LB.e9a1c33d">
                <RangeCheck SoftHard="Soft" def:ItemOID="IT.LB.LBTESTCD" Comparator="EQ">
                    <CheckValue>HGB</CheckValue>
                </RangeCheck>
                <RangeCheck SoftHard="Soft" def:ItemOID="IT.LB.LBSPEC" Comparator="EQ">
                    <CheckValue>BLOOD</CheckValue>
                </RangeCheck>
                <RangeCheck SoftHard="Soft" def:ItemOID="IT.LB.LBMETHOD" Comparator="EQ">
                    <CheckValue>DIPSTICK MEASUREMENT METHOD</CheckValue>
                </RangeCheck>
            </def:WhereClauseDef>
            <def:WhereClauseDef OID="WC.LB.7f0975c7">
                <RangeCheck SoftHard="Soft" def:ItemOID="IT.LB.LBTESTCD" Comparator="EQ">
                    <CheckValue>HCT</CheckValue>
                </RangeCheck>
                <RangeCheck SoftHard="Soft" def:ItemOID="IT.LB.LBSPEC" Comparator="EQ">
                    <CheckValue>BLOOD</CheckValue>
                </RangeCheck>
            </def:WhereClauseDef>
            <def:WhereClauseDef OID="WC.LB.f7f1de35">
                <RangeCheck SoftHard="Soft" def:ItemOID="IT.LB.LBTESTCD" Comparator="EQ">
                    <CheckValue>RBC</CheckValue>
                </RangeCheck>
                <RangeCheck SoftHard="Soft" def:ItemOID="IT.LB.LBSPEC" Comparator="EQ">
                    <CheckValue>BLOOD</CheckValue>
                </RangeCheck>
            </def:WhereClauseDef>
            <def:WhereClauseDef OID="WC.LB.c32acb17">
                <RangeCheck SoftHard="Soft" def:ItemOID="IT.LB.LBTESTCD" Comparator="EQ">
                    <CheckValue>MCH</CheckValue>
                </RangeCheck>
                <RangeCheck SoftHard="Soft" def:ItemOID="IT.LB.LBSPEC" Comparator="EQ">
                    <CheckValue>ERYTHROCYTES</CheckValue>
                </RangeCheck>
            </def:WhereClauseDef>
            <def:WhereClauseDef OID="WC.LB.eb7f048a">
                <RangeCheck SoftHard="Soft" def:ItemOID="IT.LB.LBTESTCD" Comparator="EQ">
                    <CheckValue>MCHC</CheckValue>
                </RangeCheck>
                <RangeCheck SoftHard="Soft" def:ItemOID="IT.LB.LBSPEC" Comparator="EQ">
                    <CheckValue>ERYTHROCYTES</CheckValue>
                </RangeCheck>
            </def:WhereClauseDef>
            <def:WhereClauseDef OID="WC.LB.e881d4b5">
                <RangeCheck SoftHard="Soft" def:ItemOID="IT.LB.LBTESTCD" Comparator="EQ">
                    <CheckValue>MCV</CheckValue>
                </RangeCheck>
                <RangeCheck SoftHard="Soft" def:ItemOID="IT.LB.LBSPEC" Comparator="EQ">
                    <CheckValue>ERYTHROCYTES</CheckValue>
                </RangeCheck>
            </def:WhereClauseDef>
            <def:WhereClauseDef OID="WC.LB.41785be6">
                <RangeCheck SoftHard="Soft" def:ItemOID="IT.LB.LBTESTCD" Comparator="EQ">
                    <CheckValue>WBC</CheckValue>
                </RangeCheck>
                <RangeCheck SoftHard="Soft" def:ItemOID="IT.LB.LBSPEC" Comparator="EQ">
                    <CheckValue>BLOOD</CheckValue>
                </RangeCheck>
            </def:WhereClauseDef>
            <def:WhereClauseDef OID="WC.LB.a68e5eaa">
                <RangeCheck SoftHard="Soft" def:ItemOID="IT.LB.LBTESTCD" Comparator="EQ">
                    <CheckValue>NEUTSG</CheckValue>
                </RangeCheck>
                <RangeCheck SoftHard="Soft" def:ItemOID="IT.LB.LBSPEC" Comparator="EQ">
                    <CheckValue>BLOOD</CheckValue>
                </RangeCheck>
            </def:WhereClauseDef>
            <def:WhereClauseDef OID="WC.LB.aad6dbd6">
                <RangeCheck SoftHard="Soft" def:ItemOID="IT.LB.LBTESTCD" Comparator="EQ">
                    <CheckValue>NEUTB</CheckValue>
                </RangeCheck>
                <RangeCheck SoftHard="Soft" def:ItemOID="IT.LB.LBSPEC" Comparator="EQ">
                    <CheckValue>BLOOD</CheckValue>
                </RangeCheck>
            </def:WhereClauseDef>
            <def:WhereClauseDef OID="WC.LB.d13d6578">
                <RangeCheck SoftHard="Soft" def:ItemOID="IT.LB.LBTESTCD" Comparator="EQ">
                    <CheckValue>NEUT</CheckValue>
                </RangeCheck>
                <RangeCheck SoftHard="Soft" def:ItemOID="IT.LB.LBSPEC" Comparator="EQ">
                    <CheckValue>BLOOD</CheckValue>
                </RangeCheck>
            </def:WhereClauseDef>
            <def:WhereClauseDef OID="WC.LB.00e6d228">
                <RangeCheck SoftHard="Soft" def:ItemOID="IT.LB.LBTESTCD" Comparator="EQ">
                    <CheckValue>MONO</CheckValue>
                </RangeCheck>
                <RangeCheck SoftHard="Soft" def:ItemOID="IT.LB.LBSPEC" Comparator="EQ">
                    <CheckValue>BLOOD</CheckValue>
                </RangeCheck>
            </def:WhereClauseDef>
            <def:WhereClauseDef OID="WC.LB.ef654de1">
                <RangeCheck SoftHard="Soft" def:ItemOID="IT.LB.LBTESTCD" Comparator="EQ">
                    <CheckValue>EOS</CheckValue>
                </RangeCheck>
                <RangeCheck SoftHard="Soft" def:ItemOID="IT.LB.LBSPEC" Comparator="EQ">
                    <CheckValue>BLOOD</CheckValue>
                </RangeCheck>
            </def:WhereClauseDef>
            <def:WhereClauseDef OID="WC.LB.b6fa6e8d">
                <RangeCheck SoftHard="Soft" def:ItemOID="IT.LB.LBTESTCD" Comparator="EQ">
                    <CheckValue>BASO</CheckValue>
                </RangeCheck>
                <RangeCheck SoftHard="Soft" def:ItemOID="IT.LB.LBSPEC" Comparator="EQ">
                    <CheckValue>BLOOD</CheckValue>
                </RangeCheck>
            </def:WhereClauseDef>
            <def:WhereClauseDef OID="WC.LB.90eedf3b">
                <RangeCheck SoftHard="Soft" def:ItemOID="IT.LB.LBTESTCD" Comparator="EQ">
                    <CheckValue>PLAT</CheckValue>
                </RangeCheck>
                <RangeCheck SoftHard="Soft" def:ItemOID="IT.LB.LBSPEC" Comparator="EQ">
                    <CheckValue>BLOOD</CheckValue>
                </RangeCheck>
            </def:WhereClauseDef>
            <def:WhereClauseDef OID="WC.LB.8914eb45">
                <RangeCheck SoftHard="Soft" def:ItemOID="IT.LB.LBTESTCD" Comparator="EQ">
                    <CheckValue>ALT</CheckValue>
                </RangeCheck>
                <RangeCheck SoftHard="Soft" def:ItemOID="IT.LB.LBSPEC" Comparator="EQ">
                    <CheckValue>SERUM OR PLASMA</CheckValue>
                </RangeCheck>
            </def:WhereClauseDef>
            <def:WhereClauseDef OID="WC.LB.6660e11c">
                <RangeCheck SoftHard="Soft" def:ItemOID="IT.LB.LBTESTCD" Comparator="EQ">
                    <CheckValue>ALP</CheckValue>
                </RangeCheck>
                <RangeCheck SoftHard="Soft" def:ItemOID="IT.LB.LBSPEC" Comparator="EQ">
                    <CheckValue>SERUM OR PLASMA</CheckValue>
                </RangeCheck>
            </def:WhereClauseDef>
            <def:WhereClauseDef OID="WC.LB.37e389df">
                <RangeCheck SoftHard="Soft" def:ItemOID="IT.LB.LBTESTCD" Comparator="EQ">
                    <CheckValue>AST</CheckValue>
                </RangeCheck>
                <RangeCheck SoftHard="Soft" def:ItemOID="IT.LB.LBSPEC" Comparator="EQ">
                    <CheckValue>SERUM OR PLASMA</CheckValue>
                </RangeCheck>
            </def:WhereClauseDef>
            <def:WhereClauseDef OID="WC.LB.549f5ae4">
                <RangeCheck SoftHard="Soft" def:ItemOID="IT.LB.LBTESTCD" Comparator="EQ">
                    <CheckValue>CREAT</CheckValue>
                </RangeCheck>
                <RangeCheck SoftHard="Soft" def:ItemOID="IT.LB.LBSPEC" Comparator="EQ">
                    <CheckValue>URINE</CheckValue>
                </RangeCheck>
            </def:WhereClauseDef>
            <def:WhereClauseDef OID="WC.LB.ee634517">
                <RangeCheck SoftHard="Soft" def:ItemOID="IT.LB.LBTESTCD" Comparator="EQ">
                    <CheckValue>K</CheckValue>
                </RangeCheck>
                <RangeCheck SoftHard="Soft" def:ItemOID="IT.LB.LBSPEC" Comparator="EQ">
                    <CheckValue>URINE</CheckValue>
                </RangeCheck>
            </def:WhereClauseDef>
            <def:WhereClauseDef OID="WC.LB.07a8daa1">
                <RangeCheck SoftHard="Soft" def:ItemOID="IT.LB.LBTESTCD" Comparator="EQ">
                    <CheckValue>SODIUM</CheckValue>
                </RangeCheck>
                <RangeCheck SoftHard="Soft" def:ItemOID="IT.LB.LBSPEC" Comparator="EQ">
                    <CheckValue>URINE</CheckValue>
                </RangeCheck>
            </def:WhereClauseDef>
            <def:WhereClauseDef OID="WC.LB.91d1c3d5">
                <RangeCheck SoftHard="Soft" def:ItemOID="IT.LB.LBTESTCD" Comparator="EQ">
                    <CheckValue>UREAN</CheckValue>
                </RangeCheck>
                <RangeCheck SoftHard="Soft" def:ItemOID="IT.LB.LBSPEC" Comparator="EQ">
                    <CheckValue>SERUM OR PLASMA</CheckValue>
                </RangeCheck>
            </def:WhereClauseDef>
            <def:WhereClauseDef OID="WC.LB.9df0845c">
                <RangeCheck SoftHard="Soft" def:ItemOID="IT.LB.LBTESTCD" Comparator="EQ">
                    <CheckValue>BICARB</CheckValue>
                </RangeCheck>
                <RangeCheck SoftHard="Soft" def:ItemOID="IT.LB.LBSPEC" Comparator="EQ">
                    <CheckValue>BLOOD</CheckValue>
                </RangeCheck>
            </def:WhereClauseDef>
            <def:WhereClauseDef OID="WC.LB.cc8b6004">
                <RangeCheck SoftHard="Soft" def:ItemOID="IT.LB.LBTESTCD" Comparator="EQ">
                    <CheckValue>CL</CheckValue>
                </RangeCheck>
                <RangeCheck SoftHard="Soft" def:ItemOID="IT.LB.LBSPEC" Comparator="EQ">
                    <CheckValue>SERUM OR PLASMA</CheckValue>
                </RangeCheck>
            </def:WhereClauseDef>
            <def:WhereClauseDef OID="WC.LB.3c564f36">
                <RangeCheck SoftHard="Soft" def:ItemOID="IT.LB.LBTESTCD" Comparator="EQ">
                    <CheckValue>GGT</CheckValue>
                </RangeCheck>
                <RangeCheck SoftHard="Soft" def:ItemOID="IT.LB.LBSPEC" Comparator="EQ">
                    <CheckValue>SERUM OR PLASMA</CheckValue>
                </RangeCheck>
            </def:WhereClauseDef>
            <def:WhereClauseDef OID="WC.LB.13fbb1a5">
                <RangeCheck SoftHard="Soft" def:ItemOID="IT.LB.LBTESTCD" Comparator="EQ">
                    <CheckValue>URATE</CheckValue>
                </RangeCheck>
                <RangeCheck SoftHard="Soft" def:ItemOID="IT.LB.LBSPEC" Comparator="EQ">
                    <CheckValue>SERUM OR PLASMA</CheckValue>
                </RangeCheck>
            </def:WhereClauseDef>
            <def:WhereClauseDef OID="WC.LB.3749493c">
                <RangeCheck SoftHard="Soft" def:ItemOID="IT.LB.LBTESTCD" Comparator="EQ">
                    <CheckValue>PHOS</CheckValue>
                </RangeCheck>
                <RangeCheck SoftHard="Soft" def:ItemOID="IT.LB.LBSPEC" Comparator="EQ">
                    <CheckValue>SERUM OR PLASMA</CheckValue>
                </RangeCheck>
            </def:WhereClauseDef>
            <def:WhereClauseDef OID="WC.LB.38f9f39d">
                <RangeCheck SoftHard="Soft" def:ItemOID="IT.LB.LBTESTCD" Comparator="EQ">
                    <CheckValue>CA</CheckValue>
                </RangeCheck>
                <RangeCheck SoftHard="Soft" def:ItemOID="IT.LB.LBSPEC" Comparator="EQ">
                    <CheckValue>SERUM OR PLASMA</CheckValue>
                </RangeCheck>
            </def:WhereClauseDef>
            <def:WhereClauseDef OID="WC.LB.516f3664">
                <RangeCheck SoftHard="Soft" def:ItemOID="IT.LB.LBTESTCD" Comparator="EQ">
                    <CheckValue>CHOL</CheckValue>
                </RangeCheck>
                <RangeCheck SoftHard="Soft" def:ItemOID="IT.LB.LBSPEC" Comparator="EQ">
                    <CheckValue>SERUM OR PLASMA</CheckValue>
                </RangeCheck>
            </def:WhereClauseDef>
            <def:WhereClauseDef OID="WC.LB.dcbcbe57">
                <RangeCheck SoftHard="Soft" def:ItemOID="IT.LB.LBTESTCD" Comparator="EQ">
                    <CheckValue>T3UP</CheckValue>
                </RangeCheck>
                <RangeCheck SoftHard="Soft" def:ItemOID="IT.LB.LBSPEC" Comparator="EQ">
                    <CheckValue>SERUM OR PLASMA</CheckValue>
                </RangeCheck>
            </def:WhereClauseDef>
            <def:WhereClauseDef OID="WC.LB.b7b215a1">
                <RangeCheck SoftHard="Soft" def:ItemOID="IT.LB.LBTESTCD" Comparator="EQ">
                    <CheckValue>T3</CheckValue>
                </RangeCheck>
                <RangeCheck SoftHard="Soft" def:ItemOID="IT.LB.LBSPEC" Comparator="EQ">
                    <CheckValue>SERUM OR PLASMA</CheckValue>
                </RangeCheck>
            </def:WhereClauseDef>
            <def:WhereClauseDef OID="WC.LB.0f071538">
                <RangeCheck SoftHard="Soft" def:ItemOID="IT.LB.LBTESTCD" Comparator="EQ">
                    <CheckValue>T4FR</CheckValue>
                </RangeCheck>
                <RangeCheck SoftHard="Soft" def:ItemOID="IT.LB.LBSPEC" Comparator="EQ">
                    <CheckValue>SERUM OR PLASMA</CheckValue>
                </RangeCheck>
            </def:WhereClauseDef>
            <def:WhereClauseDef OID="WC.LB.258e657c">
                <RangeCheck SoftHard="Soft" def:ItemOID="IT.LB.LBTESTCD" Comparator="EQ">
                    <CheckValue>T4FRIDX</CheckValue>
                </RangeCheck>
                <RangeCheck SoftHard="Soft" def:ItemOID="IT.LB.LBSPEC" Comparator="EQ">
                    <CheckValue>SERUM OR PLASMA</CheckValue>
                </RangeCheck>
            </def:WhereClauseDef>
            <def:WhereClauseDef OID="WC.LB.d675561c">
                <RangeCheck SoftHard="Soft" def:ItemOID="IT.LB.LBTESTCD" Comparator="EQ">
                    <CheckValue>TSH</CheckValue>
                </RangeCheck>
                <RangeCheck SoftHard="Soft" def:ItemOID="IT.LB.LBSPEC" Comparator="EQ">
                    <CheckValue>SERUM OR PLASMA</CheckValue>
                </RangeCheck>
            </def:WhereClauseDef>
            <def:WhereClauseDef OID="WC.LB.e81938d6">
                <RangeCheck SoftHard="Soft" def:ItemOID="IT.LB.LBTESTCD" Comparator="EQ">
                    <CheckValue>VITB9</CheckValue>
                </RangeCheck>
                <RangeCheck SoftHard="Soft" def:ItemOID="IT.LB.LBSPEC" Comparator="EQ">
                    <CheckValue>SERUM OR PLASMA</CheckValue>
                </RangeCheck>
            </def:WhereClauseDef>
            <def:WhereClauseDef OID="WC.LB.54dda2d1">
                <RangeCheck SoftHard="Soft" def:ItemOID="IT.LB.LBTESTCD" Comparator="EQ">
                    <CheckValue>VITB12</CheckValue>
                </RangeCheck>
                <RangeCheck SoftHard="Soft" def:ItemOID="IT.LB.LBSPEC" Comparator="EQ">
                    <CheckValue>SERUM OR PLASMA</CheckValue>
                </RangeCheck>
            </def:WhereClauseDef>
            <def:WhereClauseDef OID="WC.LB.e6a434ec">
                <RangeCheck SoftHard="Soft" def:ItemOID="IT.LB.LBTESTCD" Comparator="EQ">
                    <CheckValue>UROBIL</CheckValue>
                </RangeCheck>
                <RangeCheck SoftHard="Soft" def:ItemOID="IT.LB.LBSPEC" Comparator="EQ">
                    <CheckValue>URINE</CheckValue>
                </RangeCheck>
            </def:WhereClauseDef>
            <def:WhereClauseDef OID="WC.LB.9e9118c8">
                <RangeCheck SoftHard="Soft" def:ItemOID="IT.LB.LBTESTCD" Comparator="EQ">
                    <CheckValue>HBA1C</CheckValue>
                </RangeCheck>
                <RangeCheck SoftHard="Soft" def:ItemOID="IT.LB.LBSPEC" Comparator="EQ">
                    <CheckValue>BLOOD</CheckValue>
                </RangeCheck>
            </def:WhereClauseDef>
            <def:WhereClauseDef OID="WC.LB.8644d9ca">
                <RangeCheck SoftHard="Soft" def:ItemOID="IT.LB.LBTESTCD" Comparator="EQ">
                    <CheckValue>HBA1CHGB</CheckValue>
                </RangeCheck>
                <RangeCheck SoftHard="Soft" def:ItemOID="IT.LB.LBSPEC" Comparator="EQ">
                    <CheckValue>BLOOD</CheckValue>
                </RangeCheck>
            </def:WhereClauseDef>
            <def:WhereClauseDef OID="WC.MB.49773274">
                <RangeCheck SoftHard="Soft" def:ItemOID="IT.MB.MBTESTCD" Comparator="EQ">
                    <CheckValue>TPLAB</CheckValue>
                </RangeCheck>
                <RangeCheck SoftHard="Soft" def:ItemOID="IT.MB.MBTSTDTL" Comparator="EQ">
                    <CheckValue>DETECTION</CheckValue>
                </RangeCheck>
                <RangeCheck SoftHard="Soft" def:ItemOID="IT.MB.MBSPEC" Comparator="EQ">
                    <CheckValue>SERUM</CheckValue>
                </RangeCheck>
                <RangeCheck SoftHard="Soft" def:ItemOID="IT.MB.MBMETHOD" Comparator="IN">
                    <CheckValue>FLUORESCENT IMMUNOASSAY</CheckValue>
                    <CheckValue>HEMAGGLUTINATION ASSAY</CheckValue>
                    <CheckValue>CHEMILUMINESCENT MICROPARTICLE IMMUNOASSAY</CheckValue>
                    <CheckValue>POLYMERASE CHAIN REACTION</CheckValue>
                    <CheckValue>IMMUNOBLOT</CheckValue>
                    <CheckValue>RAPID IMMUNOASSAY</CheckValue>
                </RangeCheck>
            </def:WhereClauseDef>
            <def:WhereClauseDef OID="WC.MB.e698c5a2">
                <RangeCheck SoftHard="Soft" def:ItemOID="IT.MB.MBTESTCD" Comparator="EQ">
                    <CheckValue>TPADNA</CheckValue>
                </RangeCheck>
                <RangeCheck SoftHard="Soft" def:ItemOID="IT.MB.MBTSTDTL" Comparator="EQ">
                    <CheckValue>DETECTION</CheckValue>
                </RangeCheck>
                <RangeCheck SoftHard="Soft" def:ItemOID="IT.MB.MBSPEC" Comparator="IN">
                    <CheckValue>BLOOD</CheckValue>
                    <CheckValue>CEREBROSPINAL FLUID</CheckValue>
                    <CheckValue>FLUID</CheckValue>
                    <CheckValue>SWABBED MATERIAL</CheckValue>
                    <CheckValue>URINE</CheckValue>
                </RangeCheck>
                <RangeCheck SoftHard="Soft" def:ItemOID="IT.MB.MBMETHOD" Comparator="EQ">
                    <CheckValue>LINE PROBE ASSAY</CheckValue>
                </RangeCheck>
            </def:WhereClauseDef>
            <def:WhereClauseDef OID="WC.TS.08ebd0ce">
                <RangeCheck SoftHard="Soft" def:ItemOID="IT.TS.TSPARMCD" Comparator="EQ">
                    <CheckValue>ADAPT</CheckValue>
                </RangeCheck>
            </def:WhereClauseDef>
            <def:WhereClauseDef OID="WC.TS.a7d24f4a">
                <RangeCheck SoftHard="Soft" def:ItemOID="IT.TS.TSPARMCD" Comparator="EQ">
                    <CheckValue>AGEMIN</CheckValue>
                </RangeCheck>
            </def:WhereClauseDef>
            <def:WhereClauseDef OID="WC.TS.4ac86c98">
                <RangeCheck SoftHard="Soft" def:ItemOID="IT.TS.TSPARMCD" Comparator="EQ">
                    <CheckValue>AGEMAX</CheckValue>
                </RangeCheck>
            </def:WhereClauseDef>
            <def:WhereClauseDef OID="WC.TS.54cd02f1">
                <RangeCheck SoftHard="Soft" def:ItemOID="IT.TS.TSPARMCD" Comparator="EQ">
                    <CheckValue>COMPTRT</CheckValue>
                </RangeCheck>
            </def:WhereClauseDef>
            <def:WhereClauseDef OID="WC.TS.f9fa8745">
                <RangeCheck SoftHard="Soft" def:ItemOID="IT.TS.TSPARMCD" Comparator="EQ">
                    <CheckValue>CRMDUR</CheckValue>
                </RangeCheck>
            </def:WhereClauseDef>
            <def:WhereClauseDef OID="WC.TS.7fc6c3e6">
                <RangeCheck SoftHard="Soft" def:ItemOID="IT.TS.TSPARMCD" Comparator="EQ">
                    <CheckValue>DOSE</CheckValue>
                </RangeCheck>
            </def:WhereClauseDef>
            <def:WhereClauseDef OID="WC.TS.5cd14c68">
                <RangeCheck SoftHard="Soft" def:ItemOID="IT.TS.TSPARMCD" Comparator="EQ">
                    <CheckValue>DOSFRQ</CheckValue>
                </RangeCheck>
            </def:WhereClauseDef>
            <def:WhereClauseDef OID="WC.TS.4053f56c">
                <RangeCheck SoftHard="Soft" def:ItemOID="IT.TS.TSPARMCD" Comparator="EQ">
                    <CheckValue>DOSU</CheckValue>
                </RangeCheck>
            </def:WhereClauseDef>
            <def:WhereClauseDef OID="WC.TS.9cdae039">
                <RangeCheck SoftHard="Soft" def:ItemOID="IT.TS.TSPARMCD" Comparator="EQ">
                    <CheckValue>INDIC</CheckValue>
                </RangeCheck>
            </def:WhereClauseDef>
            <def:WhereClauseDef OID="WC.TS.2c83b5d9">
                <RangeCheck SoftHard="Soft" def:ItemOID="IT.TS.TSPARMCD" Comparator="EQ">
                    <CheckValue>INTMODEL</CheckValue>
                </RangeCheck>
            </def:WhereClauseDef>
            <def:WhereClauseDef OID="WC.TS.e3ae16cd">
                <RangeCheck SoftHard="Soft" def:ItemOID="IT.TS.TSPARMCD" Comparator="EQ">
                    <CheckValue>INTTYPE</CheckValue>
                </RangeCheck>
            </def:WhereClauseDef>
            <def:WhereClauseDef OID="WC.TS.89c0d243">
                <RangeCheck SoftHard="Soft" def:ItemOID="IT.TS.TSPARMCD" Comparator="EQ">
                    <CheckValue>NARMS</CheckValue>
                </RangeCheck>
            </def:WhereClauseDef>
            <def:WhereClauseDef OID="WC.TS.7a056c75">
                <RangeCheck SoftHard="Soft" def:ItemOID="IT.TS.TSPARMCD" Comparator="EQ">
                    <CheckValue>OBJPRIM</CheckValue>
                </RangeCheck>
            </def:WhereClauseDef>
            <def:WhereClauseDef OID="WC.TS.36721696">
                <RangeCheck SoftHard="Soft" def:ItemOID="IT.TS.TSPARMCD" Comparator="EQ">
                    <CheckValue>OBJSEC</CheckValue>
                </RangeCheck>
            </def:WhereClauseDef>
            <def:WhereClauseDef OID="WC.TS.d8b84608">
                <RangeCheck SoftHard="Soft" def:ItemOID="IT.TS.TSPARMCD" Comparator="EQ">
                    <CheckValue>OUTMSPRI</CheckValue>
                </RangeCheck>
            </def:WhereClauseDef>
            <def:WhereClauseDef OID="WC.TS.1d3cd461">
                <RangeCheck SoftHard="Soft" def:ItemOID="IT.TS.TSPARMCD" Comparator="EQ">
                    <CheckValue>OUTMSSEC</CheckValue>
                </RangeCheck>
            </def:WhereClauseDef>
            <def:WhereClauseDef OID="WC.TS.3a1c5c3c">
                <RangeCheck SoftHard="Soft" def:ItemOID="IT.TS.TSPARMCD" Comparator="EQ">
                    <CheckValue>PLANSUB</CheckValue>
                </RangeCheck>
            </def:WhereClauseDef>
            <def:WhereClauseDef OID="WC.TS.2b2d70bc">
                <RangeCheck SoftHard="Soft" def:ItemOID="IT.TS.TSPARMCD" Comparator="EQ">
                    <CheckValue>PTRTDUR</CheckValue>
                </RangeCheck>
            </def:WhereClauseDef>
            <def:WhereClauseDef OID="WC.TS.3c4a8bf2">
                <RangeCheck SoftHard="Soft" def:ItemOID="IT.TS.TSPARMCD" Comparator="EQ">
                    <CheckValue>ROUTE</CheckValue>
                </RangeCheck>
            </def:WhereClauseDef>
            <def:WhereClauseDef OID="WC.TS.4f0c74c2">
                <RangeCheck SoftHard="Soft" def:ItemOID="IT.TS.TSPARMCD" Comparator="EQ">
                    <CheckValue>SEXPOP</CheckValue>
                </RangeCheck>
            </def:WhereClauseDef>
            <def:WhereClauseDef OID="WC.TS.51236927">
                <RangeCheck SoftHard="Soft" def:ItemOID="IT.TS.TSPARMCD" Comparator="EQ">
                    <CheckValue>SPONSOR</CheckValue>
                </RangeCheck>
            </def:WhereClauseDef>
            <def:WhereClauseDef OID="WC.TS.f4cb41bb">
                <RangeCheck SoftHard="Soft" def:ItemOID="IT.TS.TSPARMCD" Comparator="EQ">
                    <CheckValue>STYPE</CheckValue>
                </RangeCheck>
            </def:WhereClauseDef>
            <def:WhereClauseDef OID="WC.TS.9e101607">
                <RangeCheck SoftHard="Soft" def:ItemOID="IT.TS.TSPARMCD" Comparator="EQ">
                    <CheckValue>TBLIND</CheckValue>
                </RangeCheck>
            </def:WhereClauseDef>
            <def:WhereClauseDef OID="WC.TS.d8c1ac4c">
                <RangeCheck SoftHard="Soft" def:ItemOID="IT.TS.TSPARMCD" Comparator="EQ">
                    <CheckValue>THERAREA</CheckValue>
                </RangeCheck>
            </def:WhereClauseDef>
            <def:WhereClauseDef OID="WC.TS.e423672b">
                <RangeCheck SoftHard="Soft" def:ItemOID="IT.TS.TSPARMCD" Comparator="EQ">
                    <CheckValue>TINDTP</CheckValue>
                </RangeCheck>
            </def:WhereClauseDef>
            <def:WhereClauseDef OID="WC.TS.43684533">
                <RangeCheck SoftHard="Soft" def:ItemOID="IT.TS.TSPARMCD" Comparator="EQ">
                    <CheckValue>TITLE</CheckValue>
                </RangeCheck>
            </def:WhereClauseDef>
            <def:WhereClauseDef OID="WC.TS.22640600">
                <RangeCheck SoftHard="Soft" def:ItemOID="IT.TS.TSPARMCD" Comparator="EQ">
                    <CheckValue>TPHASE</CheckValue>
                </RangeCheck>
            </def:WhereClauseDef>
            <def:WhereClauseDef OID="WC.TS.1948fed3">
                <RangeCheck SoftHard="Soft" def:ItemOID="IT.TS.TSPARMCD" Comparator="EQ">
                    <CheckValue>TRT</CheckValue>
                </RangeCheck>
            </def:WhereClauseDef>
            <def:WhereClauseDef OID="WC.TS.29af0670">
                <RangeCheck SoftHard="Soft" def:ItemOID="IT.TS.TSPARMCD" Comparator="EQ">
                    <CheckValue>TTYPE</CheckValue>
                </RangeCheck>
            </def:WhereClauseDef>
            <def:WhereClauseDef OID="WC.IE.1d2bb25f">
                <RangeCheck SoftHard="Soft" def:ItemOID="IT.IE.IETESTCD" Comparator="EQ">
                    <CheckValue>IN01</CheckValue>
                </RangeCheck>
            </def:WhereClauseDef>
            <def:WhereClauseDef OID="WC.IE.fa688bf3">
                <RangeCheck SoftHard="Soft" def:ItemOID="IT.IE.IETESTCD" Comparator="EQ">
                    <CheckValue>IN02</CheckValue>
                </RangeCheck>
            </def:WhereClauseDef>
            <def:WhereClauseDef OID="WC.IE.f276b607">
                <RangeCheck SoftHard="Soft" def:ItemOID="IT.IE.IETESTCD" Comparator="EQ">
                    <CheckValue>IN03</CheckValue>
                </RangeCheck>
            </def:WhereClauseDef>
            <def:WhereClauseDef OID="WC.IE.cd528448">
                <RangeCheck SoftHard="Soft" def:ItemOID="IT.IE.IETESTCD" Comparator="EQ">
                    <CheckValue>IN04</CheckValue>
                </RangeCheck>
            </def:WhereClauseDef>
            <def:WhereClauseDef OID="WC.IE.c1db3fd3">
                <RangeCheck SoftHard="Soft" def:ItemOID="IT.IE.IETESTCD" Comparator="EQ">
                    <CheckValue>IN05</CheckValue>
                </RangeCheck>
            </def:WhereClauseDef>
            <def:WhereClauseDef OID="WC.IE.c2ec614b">
                <RangeCheck SoftHard="Soft" def:ItemOID="IT.IE.IETESTCD" Comparator="EQ">
                    <CheckValue>IN06</CheckValue>
                </RangeCheck>
            </def:WhereClauseDef>
            <def:WhereClauseDef OID="WC.IE.2ef341aa">
                <RangeCheck SoftHard="Soft" def:ItemOID="IT.IE.IETESTCD" Comparator="EQ">
                    <CheckValue>IN07</CheckValue>
                </RangeCheck>
            </def:WhereClauseDef>
            <def:WhereClauseDef OID="WC.IE.5d85184b">
                <RangeCheck SoftHard="Soft" def:ItemOID="IT.IE.IETESTCD" Comparator="EQ">
                    <CheckValue>IN08</CheckValue>
                </RangeCheck>
            </def:WhereClauseDef>
            <def:WhereClauseDef OID="WC.IE.8579104c">
                <RangeCheck SoftHard="Soft" def:ItemOID="IT.IE.IETESTCD" Comparator="EQ">
                    <CheckValue>EX01</CheckValue>
                </RangeCheck>
            </def:WhereClauseDef>
            <def:WhereClauseDef OID="WC.IE.74eacc45">
                <RangeCheck SoftHard="Soft" def:ItemOID="IT.IE.IETESTCD" Comparator="EQ">
                    <CheckValue>EX02</CheckValue>
                </RangeCheck>
            </def:WhereClauseDef>
            <def:WhereClauseDef OID="WC.IE.ce0e8d09">
                <RangeCheck SoftHard="Soft" def:ItemOID="IT.IE.IETESTCD" Comparator="EQ">
                    <CheckValue>EX03</CheckValue>
                </RangeCheck>
            </def:WhereClauseDef>
            <def:WhereClauseDef OID="WC.IE.945bafbd">
                <RangeCheck SoftHard="Soft" def:ItemOID="IT.IE.IETESTCD" Comparator="EQ">
                    <CheckValue>EX04</CheckValue>
                </RangeCheck>
            </def:WhereClauseDef>
            <def:WhereClauseDef OID="WC.IE.afbec960">
                <RangeCheck SoftHard="Soft" def:ItemOID="IT.IE.IETESTCD" Comparator="EQ">
                    <CheckValue>EX05</CheckValue>
                </RangeCheck>
            </def:WhereClauseDef>
            <def:WhereClauseDef OID="WC.IE.cac0d3f4">
                <RangeCheck SoftHard="Soft" def:ItemOID="IT.IE.IETESTCD" Comparator="EQ">
                    <CheckValue>EX06</CheckValue>
                </RangeCheck>
            </def:WhereClauseDef>
            <def:WhereClauseDef OID="WC.IE.cabd9be0">
                <RangeCheck SoftHard="Soft" def:ItemOID="IT.IE.IETESTCD" Comparator="EQ">
                    <CheckValue>EX07</CheckValue>
                </RangeCheck>
            </def:WhereClauseDef>
            <def:WhereClauseDef OID="WC.IE.fbae7983">
                <RangeCheck SoftHard="Soft" def:ItemOID="IT.IE.IETESTCD" Comparator="EQ">
                    <CheckValue>EX08</CheckValue>
                </RangeCheck>
            </def:WhereClauseDef>
            <def:WhereClauseDef OID="WC.IE.0952c014">
                <RangeCheck SoftHard="Soft" def:ItemOID="IT.IE.IETESTCD" Comparator="EQ">
                    <CheckValue>EX09</CheckValue>
                </RangeCheck>
            </def:WhereClauseDef>
            <def:WhereClauseDef OID="WC.IE.5b8b02b2">
                <RangeCheck SoftHard="Soft" def:ItemOID="IT.IE.IETESTCD" Comparator="EQ">
                    <CheckValue>EX10</CheckValue>
                </RangeCheck>
            </def:WhereClauseDef>
            <def:WhereClauseDef OID="WC.IE.70a941e7">
                <RangeCheck SoftHard="Soft" def:ItemOID="IT.IE.IETESTCD" Comparator="EQ">
                    <CheckValue>EX11</CheckValue>
                </RangeCheck>
            </def:WhereClauseDef>
            <def:WhereClauseDef OID="WC.IE.611f5d7b">
                <RangeCheck SoftHard="Soft" def:ItemOID="IT.IE.IETESTCD" Comparator="EQ">
                    <CheckValue>EX12</CheckValue>
                </RangeCheck>
            </def:WhereClauseDef>
            <def:WhereClauseDef OID="WC.IE.8abff918">
                <RangeCheck SoftHard="Soft" def:ItemOID="IT.IE.IETESTCD" Comparator="EQ">
                    <CheckValue>EX13</CheckValue>
                </RangeCheck>
            </def:WhereClauseDef>
            <def:WhereClauseDef OID="WC.IE.b089a2a0">
                <RangeCheck SoftHard="Soft" def:ItemOID="IT.IE.IETESTCD" Comparator="EQ">
                    <CheckValue>EX14</CheckValue>
                </RangeCheck>
            </def:WhereClauseDef>
            <def:WhereClauseDef OID="WC.IE.39cb2456">
                <RangeCheck SoftHard="Soft" def:ItemOID="IT.IE.IETESTCD" Comparator="EQ">
                    <CheckValue>EX15</CheckValue>
                </RangeCheck>
            </def:WhereClauseDef>
            <def:WhereClauseDef OID="WC.IE.2cdb5c18">
                <RangeCheck SoftHard="Soft" def:ItemOID="IT.IE.IETESTCD" Comparator="EQ">
                    <CheckValue>EX16</CheckValue>
                </RangeCheck>
            </def:WhereClauseDef>
            <def:WhereClauseDef OID="WC.IE.b415f3a9">
                <RangeCheck SoftHard="Soft" def:ItemOID="IT.IE.IETESTCD" Comparator="EQ">
                    <CheckValue>EX17</CheckValue>
                </RangeCheck>
            </def:WhereClauseDef>
            <def:WhereClauseDef OID="WC.IE.5c29f970">
                <RangeCheck SoftHard="Soft" def:ItemOID="IT.IE.IETESTCD" Comparator="EQ">
                    <CheckValue>EX18</CheckValue>
                </RangeCheck>
            </def:WhereClauseDef>
            <def:WhereClauseDef OID="WC.IE.9fe9a358">
                <RangeCheck SoftHard="Soft" def:ItemOID="IT.IE.IETESTCD" Comparator="EQ">
                    <CheckValue>EX19</CheckValue>
                </RangeCheck>
            </def:WhereClauseDef>
            <def:WhereClauseDef OID="WC.IE.e36b210b">
                <RangeCheck SoftHard="Soft" def:ItemOID="IT.IE.IETESTCD" Comparator="EQ">
                    <CheckValue>EX20</CheckValue>
                </RangeCheck>
            </def:WhereClauseDef>
            <def:WhereClauseDef OID="WC.IE.743b4fb5">
                <RangeCheck SoftHard="Soft" def:ItemOID="IT.IE.IETESTCD" Comparator="EQ">
                    <CheckValue>EX21</CheckValue>
                </RangeCheck>
            </def:WhereClauseDef>
            <def:WhereClauseDef OID="WC.IE.76a82754">
                <RangeCheck SoftHard="Soft" def:ItemOID="IT.IE.IETESTCD" Comparator="EQ">
                    <CheckValue>EX22</CheckValue>
                </RangeCheck>
            </def:WhereClauseDef>
            <def:WhereClauseDef OID="WC.IE.fbeb5a1e">
                <RangeCheck SoftHard="Soft" def:ItemOID="IT.IE.IETESTCD" Comparator="EQ">
                    <CheckValue>EX23</CheckValue>
                </RangeCheck>
            </def:WhereClauseDef>
            <ItemGroupDef OID="IG.DS" Name="DS" Domain="DS" SASDatasetName="DS"
                          def:Structure="One record per disposition status or protocol milestone per subject"
                          IsReferenceData="No" Repeating="Yes" Purpose="Tabulation" def:StandardOID="STD.SDTMIG">
                <Description>
                    <TranslatedText xml:lang="en">Disposition</TranslatedText>
                </Description>
                <ItemRef ItemOID="IT.DS.STUDYID" Mandatory="Yes" OrderNumber="1" Role="Identifier"/>
                <ItemRef ItemOID="IT.DS.DOMAIN" Mandatory="Yes" OrderNumber="2" Role="Identifier"/>
                <ItemRef ItemOID="IT.DS.USUBJID" Mandatory="Yes" OrderNumber="3" Role="Identifier"/>
                <ItemRef ItemOID="IT.DS.DSSEQ" Mandatory="Yes" OrderNumber="4" Role="Identifier"/>
                <ItemRef ItemOID="IT.DS.DSTERM" Mandatory="Yes" OrderNumber="5" Role="Topic"/>
                <ItemRef ItemOID="IT.DS.DSDECOD" Mandatory="Yes" OrderNumber="6" Role="Synonym Qualifier"/>
                <ItemRef ItemOID="IT.DS.DSCAT" Mandatory="No" OrderNumber="7" Role="Grouping Qualifier"/>
                <ItemRef ItemOID="IT.DS.DSSCAT" Mandatory="No" OrderNumber="8" Role="Grouping Qualifier"/>
                <ItemRef ItemOID="IT.DS.DSSTDTC" Mandatory="No" OrderNumber="9" Role="Timing"/>
                <ItemRef ItemOID="IT.DS.DSSTDY" Mandatory="No" OrderNumber="10" Role="Timing"/>
                <def:Class Name="EVENTS"/>
                <def:leaf ID="LF.DS" xlink:href="ds.ndjson">
                    <def:title>ds.ndjson</def:title>
                </def:leaf>
            </ItemGroupDef>
            <ItemGroupDef OID="IG.DM" Name="DM" Domain="DM" SASDatasetName="DM" def:Structure="One record per subject"
                          IsReferenceData="No" Repeating="No" Purpose="Tabulation" def:StandardOID="STD.SDTMIG">
                <Description>
                    <TranslatedText xml:lang="en">Demographics</TranslatedText>
                </Description>
                <ItemRef ItemOID="IT.DM.STUDYID" Mandatory="Yes" OrderNumber="1" Role="Identifier"/>
                <ItemRef ItemOID="IT.DM.DOMAIN" Mandatory="Yes" OrderNumber="2" Role="Identifier"/>
                <ItemRef ItemOID="IT.DM.USUBJID" Mandatory="Yes" OrderNumber="3" Role="Identifier"/>
                <ItemRef ItemOID="IT.DM.SUBJID" Mandatory="Yes" OrderNumber="4" Role="Topic"/>
                <ItemRef ItemOID="IT.DM.RFSTDTC" Mandatory="No" OrderNumber="5" Role="Record Qualifier"/>
                <ItemRef ItemOID="IT.DM.RFENDTC" Mandatory="No" OrderNumber="6" Role="Record Qualifier"/>
                <ItemRef ItemOID="IT.DM.RFXSTDTC" Mandatory="No" OrderNumber="7" Role="Record Qualifier"/>
                <ItemRef ItemOID="IT.DM.RFXENDTC" Mandatory="No" OrderNumber="8" Role="Record Qualifier"/>
                <ItemRef ItemOID="IT.DM.RFICDTC" Mandatory="No" OrderNumber="9" Role="Record Qualifier"/>
                <ItemRef ItemOID="IT.DM.RFPENDTC" Mandatory="No" OrderNumber="10" Role="Record Qualifier"/>
                <ItemRef ItemOID="IT.DM.DTHDTC" Mandatory="No" OrderNumber="11" Role="Record Qualifier"/>
                <ItemRef ItemOID="IT.DM.DTHFL" Mandatory="No" OrderNumber="12" Role="Record Qualifier"/>
                <ItemRef ItemOID="IT.DM.SITEID" Mandatory="Yes" OrderNumber="13" Role="Record Qualifier"/>
                <ItemRef ItemOID="IT.DM.AGE" Mandatory="No" OrderNumber="14" Role="Record Qualifier"/>
                <ItemRef ItemOID="IT.DM.AGEU" Mandatory="No" OrderNumber="15" Role="Variable Qualifier"/>
                <ItemRef ItemOID="IT.DM.SEX" Mandatory="Yes" OrderNumber="16" Role="Record Qualifier"/>
                <ItemRef ItemOID="IT.DM.RACE" Mandatory="No" OrderNumber="17" Role="Record Qualifier"/>
                <ItemRef ItemOID="IT.DM.ETHNIC" Mandatory="No" OrderNumber="18" Role="Record Qualifier"/>
                <ItemRef ItemOID="IT.DM.ARMCD" Mandatory="No" OrderNumber="19" Role="Record Qualifier"/>
                <ItemRef ItemOID="IT.DM.ARM" Mandatory="No" OrderNumber="20" Role="Synonym Qualifier"/>
                <ItemRef ItemOID="IT.DM.ACTARMCD" Mandatory="No" OrderNumber="21" Role="Record Qualifier"/>
                <ItemRef ItemOID="IT.DM.ACTARM" Mandatory="No" OrderNumber="22" Role="Synonym Qualifier"/>
                <ItemRef ItemOID="IT.DM.ARMNRS" Mandatory="No" OrderNumber="23" Role="Record Qualifier"/>
                <ItemRef ItemOID="IT.DM.ACTARMUD" Mandatory="No" OrderNumber="24" Role="Record Qualifier"/>
                <ItemRef ItemOID="IT.DM.COUNTRY" Mandatory="Yes" OrderNumber="25" Role="Record Qualifier"/>
                <ItemRef ItemOID="IT.DM.DMDTC" Mandatory="No" OrderNumber="26" Role="Timing"/>
                <def:Class Name="SPECIAL PURPOSE"/>
                <def:leaf ID="LF.DM" xlink:href="dm.ndjson">
                    <def:title>dm.ndjson</def:title>
                </def:leaf>
            </ItemGroupDef>
            <ItemGroupDef OID="IG.SC" Name="SC" Domain="SC" SASDatasetName="SC"
                          def:Structure="One record per characteristic per visit per subject." IsReferenceData="No"
                          Repeating="Yes" Purpose="Tabulation" def:StandardOID="STD.SDTMIG">
                <Description>
                    <TranslatedText xml:lang="en">Subject Characteristics</TranslatedText>
                </Description>
                <ItemRef ItemOID="IT.SC.STUDYID" Mandatory="Yes" OrderNumber="1" Role="Identifier"/>
                <ItemRef ItemOID="IT.SC.DOMAIN" Mandatory="Yes" OrderNumber="2" Role="Identifier"/>
                <ItemRef ItemOID="IT.SC.USUBJID" Mandatory="Yes" OrderNumber="3" Role="Identifier"/>
                <ItemRef ItemOID="IT.SC.SCSEQ" Mandatory="Yes" OrderNumber="4" Role="Identifier"/>
                <ItemRef ItemOID="IT.SC.SCTESTCD" Mandatory="Yes" OrderNumber="5" Role="Topic"/>
                <ItemRef ItemOID="IT.SC.SCTEST" Mandatory="Yes" OrderNumber="6" Role="Synonym Qualifier"/>
                <ItemRef ItemOID="IT.SC.SCORRES" Mandatory="No" OrderNumber="7" Role="Result Qualifier"/>
                <ItemRef ItemOID="IT.SC.SCORRESU" Mandatory="No" OrderNumber="8" Role="Variable Qualifier"/>
                <ItemRef ItemOID="IT.SC.SCSTRESC" Mandatory="No" OrderNumber="9" Role="Result Qualifier"/>
                <ItemRef ItemOID="IT.SC.SCSTRESN" Mandatory="No" OrderNumber="10" Role="Result Qualifier"/>
                <ItemRef ItemOID="IT.SC.SCSTRESU" Mandatory="No" OrderNumber="11" Role="Variable Qualifier"/>
                <ItemRef ItemOID="IT.SC.SCDTC" Mandatory="No" OrderNumber="12" Role="Timing"/>
                <def:Class Name="FINDINGS"/>
                <def:leaf ID="LF.SC" xlink:href="sc.ndjson">
                    <def:title>sc.ndjson</def:title>
                </def:leaf>
            </ItemGroupDef>
            <ItemGroupDef OID="IG.MH" Name="MH" Domain="MH" SASDatasetName="MH"
                          def:Structure="One record per medical history event per subject" IsReferenceData="No"
                          Repeating="Yes" Purpose="Tabulation" def:StandardOID="STD.SDTMIG">
                <Description>
                    <TranslatedText xml:lang="en">Medical History</TranslatedText>
                </Description>
                <ItemRef ItemOID="IT.MH.STUDYID" Mandatory="Yes" OrderNumber="1" Role="Identifier"/>
                <ItemRef ItemOID="IT.MH.DOMAIN" Mandatory="Yes" OrderNumber="2" Role="Identifier"/>
                <ItemRef ItemOID="IT.MH.USUBJID" Mandatory="Yes" OrderNumber="3" Role="Identifier"/>
                <ItemRef ItemOID="IT.MH.MHSEQ" Mandatory="Yes" OrderNumber="4" Role="Identifier"/>
                <ItemRef ItemOID="IT.MH.MHTERM" Mandatory="Yes" OrderNumber="5" Role="Topic"/>
                <ItemRef ItemOID="IT.MH.MHDECOD" Mandatory="No" OrderNumber="6" Role="Synonym Qualifier"/>
                <ItemRef ItemOID="IT.MH.MHPRESP" Mandatory="No" OrderNumber="7" Role="Variable Qualifier"/>
                <ItemRef ItemOID="IT.MH.MHOCCUR" Mandatory="No" OrderNumber="8" Role="Record Qualifier"/>
                <ItemRef ItemOID="IT.MH.MHENRF" Mandatory="No" OrderNumber="9" Role="Timing"/>
                <ItemRef ItemOID="IT.MH.MHENRTPT" Mandatory="No" OrderNumber="10" Role="Timing"/>
                <ItemRef ItemOID="IT.MH.MHENTPT" Mandatory="No" OrderNumber="11" Role="Timing"/>
                <def:Class Name="EVENTS"/>
                <def:leaf ID="LF.MH" xlink:href="mh.ndjson">
                    <def:title>mh.ndjson</def:title>
                </def:leaf>
            </ItemGroupDef>
            <ItemGroupDef OID="IG.SU" Name="SU" Domain="SU" SASDatasetName="SU"
                          def:Structure="One record per substance type per reported occurrence per subject"
                          IsReferenceData="No" Repeating="Yes" Purpose="Tabulation" def:StandardOID="STD.SDTMIG">
                <Description>
                    <TranslatedText xml:lang="en">Substance Use</TranslatedText>
                </Description>
                <ItemRef ItemOID="IT.SU.STUDYID" Mandatory="Yes" OrderNumber="1" Role="Identifier"/>
                <ItemRef ItemOID="IT.SU.DOMAIN" Mandatory="Yes" OrderNumber="2" Role="Identifier"/>
                <ItemRef ItemOID="IT.SU.USUBJID" Mandatory="Yes" OrderNumber="3" Role="Identifier"/>
                <ItemRef ItemOID="IT.SU.SUSEQ" Mandatory="Yes" OrderNumber="4" Role="Identifier"/>
                <ItemRef ItemOID="IT.SU.SUTRT" Mandatory="Yes" OrderNumber="5" Role="Topic"/>
                <ItemRef ItemOID="IT.SU.SUCAT" Mandatory="No" OrderNumber="6" Role="Grouping Qualifier"/>
                <ItemRef ItemOID="IT.SU.SUSCAT" Mandatory="No" OrderNumber="7" Role="Grouping Qualifier"/>
                <ItemRef ItemOID="IT.SU.SUPRESP" Mandatory="No" OrderNumber="8" Role="Variable Qualifier"/>
                <ItemRef ItemOID="IT.SU.SUOCCUR" Mandatory="No" OrderNumber="9" Role="Record Qualifier"/>
                <ItemRef ItemOID="IT.SU.SUDOSE" Mandatory="No" OrderNumber="10" Role="Record Qualifier"/>
                <ItemRef ItemOID="IT.SU.SUDOSTXT" Mandatory="No" OrderNumber="11" Role="Record Qualifier"/>
                <ItemRef ItemOID="IT.SU.SUDOSU" Mandatory="No" OrderNumber="12" Role="Variable Qualifier"/>
                <ItemRef ItemOID="IT.SU.SUDOSFRQ" Mandatory="No" OrderNumber="13" Role="Variable Qualifier"/>
                <ItemRef ItemOID="IT.SU.SUSTDTC" Mandatory="No" OrderNumber="14" Role="Timing"/>
                <ItemRef ItemOID="IT.SU.SUENDTC" Mandatory="No" OrderNumber="15" Role="Timing"/>
                <ItemRef ItemOID="IT.SU.SUDUR" Mandatory="No" OrderNumber="16" Role="Timing"/>
                <ItemRef ItemOID="IT.SU.SUSTRF" Mandatory="No" OrderNumber="17" Role="Timing"/>
                <ItemRef ItemOID="IT.SU.SUENRF" Mandatory="No" OrderNumber="18" Role="Timing"/>
                <ItemRef ItemOID="IT.SU.SUSTRTPT" Mandatory="No" OrderNumber="19" Role="Timing"/>
                <ItemRef ItemOID="IT.SU.SUSTTPT" Mandatory="No" OrderNumber="20" Role="Timing"/>
                <ItemRef ItemOID="IT.SU.SUENRTPT" Mandatory="No" OrderNumber="21" Role="Timing"/>
                <ItemRef ItemOID="IT.SU.SUENTPT" Mandatory="No" OrderNumber="22" Role="Timing"/>
                <def:Class Name="INTERVENTIONS"/>
                <def:leaf ID="LF.SU" xlink:href="su.ndjson">
                    <def:title>su.ndjson</def:title>
                </def:leaf>
            </ItemGroupDef>
            <ItemGroupDef OID="IG.PR" Name="PR" Domain="PR" SASDatasetName="PR"
                          def:Structure="One record per recorded procedure per occurrence per subject"
                          IsReferenceData="No" Repeating="Yes" Purpose="Tabulation" def:StandardOID="STD.SDTMIG">
                <Description>
                    <TranslatedText xml:lang="en">Procedures</TranslatedText>
                </Description>
                <ItemRef ItemOID="IT.PR.STUDYID" Mandatory="Yes" OrderNumber="1" Role="Identifier"/>
                <ItemRef ItemOID="IT.PR.DOMAIN" Mandatory="Yes" OrderNumber="2" Role="Identifier"/>
                <ItemRef ItemOID="IT.PR.USUBJID" Mandatory="Yes" OrderNumber="3" Role="Identifier"/>
                <ItemRef ItemOID="IT.PR.PRSEQ" Mandatory="Yes" OrderNumber="4" Role="Identifier"/>
                <ItemRef ItemOID="IT.PR.PRTRT" Mandatory="Yes" OrderNumber="5" Role="Topic"/>
                <ItemRef ItemOID="IT.PR.PRDECOD" Mandatory="No" OrderNumber="6" Role="Synonym Qualifier"/>
                <ItemRef ItemOID="IT.PR.PRCAT" Mandatory="No" OrderNumber="7" Role="Grouping Qualifier"/>
                <ItemRef ItemOID="IT.PR.PRSCAT" Mandatory="No" OrderNumber="8" Role="Grouping Qualifier"/>
                <ItemRef ItemOID="IT.PR.PRPRESP" Mandatory="No" OrderNumber="9" Role="Variable Qualifier"/>
                <ItemRef ItemOID="IT.PR.PROCCUR" Mandatory="No" OrderNumber="10" Role="Record Qualifier"/>
                <ItemRef ItemOID="IT.PR.PRLOC" Mandatory="No" OrderNumber="11" Role="Record Qualifier"/>
                <ItemRef ItemOID="IT.PR.PRSTDTC" Mandatory="No" OrderNumber="12" Role="Timing"/>
                <ItemRef ItemOID="IT.PR.PRENDTC" Mandatory="No" OrderNumber="13" Role="Timing"/>
                <def:Class Name="INTERVENTIONS"/>
                <def:leaf ID="LF.PR" xlink:href="pr.ndjson">
                    <def:title>pr.ndjson</def:title>
                </def:leaf>
            </ItemGroupDef>
            <ItemGroupDef OID="IG.VS" Name="VS" Domain="VS" SASDatasetName="VS"
                          def:Structure="One record per vital sign measurement per time point per visit per subject"
                          IsReferenceData="No" Repeating="Yes" Purpose="Tabulation" def:StandardOID="STD.SDTMIG">
                <Description>
                    <TranslatedText xml:lang="en">Vital Signs</TranslatedText>
                </Description>
                <ItemRef ItemOID="IT.VS.STUDYID" Mandatory="Yes" OrderNumber="1" Role="Identifier"/>
                <ItemRef ItemOID="IT.VS.DOMAIN" Mandatory="Yes" OrderNumber="2" Role="Identifier"/>
                <ItemRef ItemOID="IT.VS.USUBJID" Mandatory="Yes" OrderNumber="3" Role="Identifier"/>
                <ItemRef ItemOID="IT.VS.VSSEQ" Mandatory="Yes" OrderNumber="4" Role="Identifier"/>
                <ItemRef ItemOID="IT.VS.VSTESTCD" Mandatory="Yes" OrderNumber="5" Role="Topic"/>
                <ItemRef ItemOID="IT.VS.VSTEST" Mandatory="Yes" OrderNumber="6" Role="Synonym Qualifier"/>
                <ItemRef ItemOID="IT.VS.VSPOS" Mandatory="No" OrderNumber="7" Role="Record Qualifier"/>
                <ItemRef ItemOID="IT.VS.VSORRES" Mandatory="No" OrderNumber="8" Role="Result Qualifier"/>
                <ItemRef ItemOID="IT.VS.VSORRESU" Mandatory="No" OrderNumber="9" Role="Variable Qualifier"/>
                <ItemRef ItemOID="IT.VS.VSSTRESC" Mandatory="No" OrderNumber="10" Role="Result Qualifier"/>
                <ItemRef ItemOID="IT.VS.VSSTRESN" Mandatory="No" OrderNumber="11" Role="Result Qualifier"/>
                <ItemRef ItemOID="IT.VS.VSSTRESU" Mandatory="No" OrderNumber="12" Role="Variable Qualifier"/>
                <ItemRef ItemOID="IT.VS.VSLOC" Mandatory="No" OrderNumber="13" Role="Record Qualifier"/>
                <ItemRef ItemOID="IT.VS.VSLAT" Mandatory="No" OrderNumber="14" Role="Result Qualifier"/>
                <ItemRef ItemOID="IT.VS.VSLOBXFL" Mandatory="No" OrderNumber="15" Role="Record Qualifier"/>
                <ItemRef ItemOID="IT.VS.VISITNUM" Mandatory="No" OrderNumber="16" Role="Timing"/>
                <ItemRef ItemOID="IT.VS.VSDTC" Mandatory="No" OrderNumber="17" Role="Timing"/>
                <def:Class Name="FINDINGS"/>
                <def:leaf ID="LF.VS" xlink:href="vs.ndjson">
                    <def:title>vs.ndjson</def:title>
                </def:leaf>
            </ItemGroupDef>
            <ItemGroupDef OID="IG.EG" Name="EG" Domain="EG" SASDatasetName="EG"
                          def:Structure="One record per ECG observation per replicate per time point or one record per ECG observation per beat per visit per subject"
                          IsReferenceData="No" Repeating="Yes" Purpose="Tabulation" def:StandardOID="STD.SDTMIG">
                <Description>
                    <TranslatedText xml:lang="en">ECG Test Results</TranslatedText>
                </Description>
                <ItemRef ItemOID="IT.EG.STUDYID" Mandatory="Yes" OrderNumber="1" Role="Identifier"/>
                <ItemRef ItemOID="IT.EG.DOMAIN" Mandatory="Yes" OrderNumber="2" Role="Identifier"/>
                <ItemRef ItemOID="IT.EG.USUBJID" Mandatory="Yes" OrderNumber="3" Role="Identifier"/>
                <ItemRef ItemOID="IT.EG.EGSEQ" Mandatory="Yes" OrderNumber="4" Role="Identifier"/>
                <ItemRef ItemOID="IT.EG.EGTESTCD" Mandatory="Yes" OrderNumber="5" Role="Topic"/>
                <ItemRef ItemOID="IT.EG.EGTEST" Mandatory="Yes" OrderNumber="6" Role="Synonym Qualifier"/>
                <ItemRef ItemOID="IT.EG.EGCAT" Mandatory="No" OrderNumber="7" Role="Grouping Qualifier"/>
                <ItemRef ItemOID="IT.EG.EGPOS" Mandatory="No" OrderNumber="8" Role="Record Qualifier"/>
                <ItemRef ItemOID="IT.EG.EGORRES" Mandatory="No" OrderNumber="9" Role="Result Qualifier"/>
                <ItemRef ItemOID="IT.EG.EGORRESU" Mandatory="No" OrderNumber="10" Role="Variable Qualifier"/>
                <ItemRef ItemOID="IT.EG.EGSTRESC" Mandatory="No" OrderNumber="11" Role="Result Qualifier"/>
                <ItemRef ItemOID="IT.EG.EGSTRESN" Mandatory="No" OrderNumber="12" Role="Result Qualifier"/>
                <ItemRef ItemOID="IT.EG.EGSTRESU" Mandatory="No" OrderNumber="13" Role="Variable Qualifier"/>
                <ItemRef ItemOID="IT.EG.EGMETHOD" Mandatory="No" OrderNumber="14" Role="Record Qualifier"/>
                <ItemRef ItemOID="IT.EG.EGLOBXFL" Mandatory="No" OrderNumber="15" Role="Record Qualifier"/>
                <ItemRef ItemOID="IT.EG.EGEVAL" Mandatory="No" OrderNumber="16" Role="Record Qualifier"/>
                <ItemRef ItemOID="IT.EG.EGCLSIG" Mandatory="No" OrderNumber="17" Role="Record Qualifier"/>
                <ItemRef ItemOID="IT.EG.VISITNUM" Mandatory="No" OrderNumber="18" Role="Timing"/>
                <ItemRef ItemOID="IT.EG.EGDTC" Mandatory="No" OrderNumber="19" Role="Timing"/>
                <def:Class Name="FINDINGS"/>
                <def:leaf ID="LF.EG" xlink:href="eg.ndjson">
                    <def:title>eg.ndjson</def:title>
                </def:leaf>
            </ItemGroupDef>
            <ItemGroupDef OID="IG.CM" Name="CM" Domain="CM" SASDatasetName="CM"
                          def:Structure="One record per recorded intervention occurrence or constant-dosing interval per subject"
                          IsReferenceData="No" Repeating="Yes" Purpose="Tabulation" def:StandardOID="STD.SDTMIG">
                <Description>
                    <TranslatedText xml:lang="en">Concomitant/Prior Medications</TranslatedText>
                </Description>
                <ItemRef ItemOID="IT.CM.STUDYID" Mandatory="Yes" OrderNumber="1" Role="Identifier"/>
                <ItemRef ItemOID="IT.CM.DOMAIN" Mandatory="Yes" OrderNumber="2" Role="Identifier"/>
                <ItemRef ItemOID="IT.CM.USUBJID" Mandatory="Yes" OrderNumber="3" Role="Identifier"/>
                <ItemRef ItemOID="IT.CM.CMSEQ" Mandatory="Yes" OrderNumber="4" Role="Identifier"/>
                <ItemRef ItemOID="IT.CM.CMTRT" Mandatory="Yes" OrderNumber="5" Role="Topic"/>
                <ItemRef ItemOID="IT.CM.CMDECOD" Mandatory="No" OrderNumber="6" Role="Synonym Qualifier"/>
                <ItemRef ItemOID="IT.CM.CMCAT" Mandatory="No" OrderNumber="7" Role="Grouping Qualifier"/>
                <ItemRef ItemOID="IT.CM.CMSCAT" Mandatory="No" OrderNumber="8" Role="Grouping Qualifier"/>
                <ItemRef ItemOID="IT.CM.CMPRESP" Mandatory="No" OrderNumber="9" Role="Variable Qualifier"/>
                <ItemRef ItemOID="IT.CM.CMOCCUR" Mandatory="No" OrderNumber="10" Role="Record Qualifier"/>
                <ItemRef ItemOID="IT.CM.CMINDC" Mandatory="No" OrderNumber="11" Role="Record Qualifier"/>
                <ItemRef ItemOID="IT.CM.CMDOSE" Mandatory="No" OrderNumber="12" Role="Record Qualifier"/>
                <ItemRef ItemOID="IT.CM.CMDOSU" Mandatory="No" OrderNumber="13" Role="Variable Qualifier"/>
                <ItemRef ItemOID="IT.CM.CMDOSFRM" Mandatory="No" OrderNumber="14" Role="Variable Qualifier"/>
                <ItemRef ItemOID="IT.CM.CMROUTE" Mandatory="No" OrderNumber="15" Role="Variable Qualifier"/>
                <ItemRef ItemOID="IT.CM.CMSTDTC" Mandatory="No" OrderNumber="16" Role="Timing"/>
                <ItemRef ItemOID="IT.CM.CMENDTC" Mandatory="No" OrderNumber="17" Role="Timing"/>
                <def:Class Name="INTERVENTIONS"/>
                <def:leaf ID="LF.CM" xlink:href="cm.ndjson">
                    <def:title>cm.ndjson</def:title>
                </def:leaf>
            </ItemGroupDef>
            <ItemGroupDef OID="IG.LB" Name="LB" Domain="LB" SASDatasetName="LB"
                          def:Structure="One record per lab test per time point per visit per subject"
                          IsReferenceData="No" Repeating="Yes" Purpose="Tabulation" def:StandardOID="STD.SDTMIG">
                <Description>
                    <TranslatedText xml:lang="en">Laboratory Test Results</TranslatedText>
                </Description>
                <ItemRef ItemOID="IT.LB.STUDYID" Mandatory="Yes" OrderNumber="1" Role="Identifier"/>
                <ItemRef ItemOID="IT.LB.DOMAIN" Mandatory="Yes" OrderNumber="2" Role="Identifier"/>
                <ItemRef ItemOID="IT.LB.USUBJID" Mandatory="Yes" OrderNumber="3" Role="Identifier"/>
                <ItemRef ItemOID="IT.LB.LBSEQ" Mandatory="Yes" OrderNumber="4" Role="Identifier"/>
                <ItemRef ItemOID="IT.LB.LBTESTCD" Mandatory="Yes" OrderNumber="5" Role="Topic"/>
                <ItemRef ItemOID="IT.LB.LBTEST" Mandatory="Yes" OrderNumber="6" Role="Synonym Qualifier"/>
                <ItemRef ItemOID="IT.LB.LBCAT" Mandatory="No" OrderNumber="7" Role="Grouping Qualifier"/>
                <ItemRef ItemOID="IT.LB.LBORRES" Mandatory="No" OrderNumber="8" Role="Result Qualifier"/>
                <ItemRef ItemOID="IT.LB.LBORRESU" Mandatory="No" OrderNumber="9" Role="Variable Qualifier"/>
                <ItemRef ItemOID="IT.LB.LBORNRLO" Mandatory="No" OrderNumber="10" Role="Variable Qualifier"/>
                <ItemRef ItemOID="IT.LB.LBORNRHI" Mandatory="No" OrderNumber="11" Role="Variable Qualifier"/>
                <ItemRef ItemOID="IT.LB.LBSTRESC" Mandatory="No" OrderNumber="12" Role="Result Qualifier"/>
                <ItemRef ItemOID="IT.LB.LBSTRESN" Mandatory="No" OrderNumber="13" Role="Result Qualifier"/>
                <ItemRef ItemOID="IT.LB.LBSTRESU" Mandatory="No" OrderNumber="14" Role="Variable Qualifier"/>
                <ItemRef ItemOID="IT.LB.LBSTNRLO" Mandatory="No" OrderNumber="15" Role="Variable Qualifier"/>
                <ItemRef ItemOID="IT.LB.LBSTNRHI" Mandatory="No" OrderNumber="16" Role="Variable Qualifier"/>
                <ItemRef ItemOID="IT.LB.LBNRIND" Mandatory="No" OrderNumber="17" Role="Variable Qualifier"/>
                <ItemRef ItemOID="IT.LB.LBSPEC" Mandatory="No" OrderNumber="18" Role="Record Qualifier"/>
                <ItemRef ItemOID="IT.LB.LBMETHOD" Mandatory="No" OrderNumber="19" Role="Record Qualifier"/>
                <ItemRef ItemOID="IT.LB.LBLOBXFL" Mandatory="No" OrderNumber="20" Role="Record Qualifier"/>
                <ItemRef ItemOID="IT.LB.LBFAST" Mandatory="No" OrderNumber="21" Role="Record Qualifier"/>
                <ItemRef ItemOID="IT.LB.VISITNUM" Mandatory="No" OrderNumber="22" Role="Timing"/>
                <ItemRef ItemOID="IT.LB.LBDTC" Mandatory="No" OrderNumber="23" Role="Timing"/>
                <def:Class Name="FINDINGS"/>
                <def:leaf ID="LF.LB" xlink:href="lb.ndjson">
                    <def:title>lb.ndjson</def:title>
                </def:leaf>
            </ItemGroupDef>
            <ItemGroupDef OID="IG.MB" Name="MB" Domain="MB" SASDatasetName="MB"
                          def:Structure="One record per microbiology specimen finding per time point per visit per subject"
                          IsReferenceData="No" Repeating="Yes" Purpose="Tabulation" def:StandardOID="STD.SDTMIG">
                <Description>
                    <TranslatedText xml:lang="en">Microbiology Specimen</TranslatedText>
                </Description>
                <ItemRef ItemOID="IT.MB.STUDYID" Mandatory="Yes" OrderNumber="1" Role="Identifier"/>
                <ItemRef ItemOID="IT.MB.DOMAIN" Mandatory="Yes" OrderNumber="2" Role="Identifier"/>
                <ItemRef ItemOID="IT.MB.USUBJID" Mandatory="Yes" OrderNumber="3" Role="Identifier"/>
                <ItemRef ItemOID="IT.MB.MBSEQ" Mandatory="Yes" OrderNumber="4" Role="Identifier"/>
                <ItemRef ItemOID="IT.MB.MBTESTCD" Mandatory="Yes" OrderNumber="5" Role="Topic"/>
                <ItemRef ItemOID="IT.MB.MBTEST" Mandatory="Yes" OrderNumber="6" Role="Synonym Qualifier"/>
                <ItemRef ItemOID="IT.MB.MBTSTDTL" Mandatory="No" OrderNumber="7" Role="Variable Qualifier"/>
                <ItemRef ItemOID="IT.MB.MBORRES" Mandatory="No" OrderNumber="8" Role="Result Qualifier"/>
                <ItemRef ItemOID="IT.MB.MBSTRESC" Mandatory="No" OrderNumber="9" Role="Result Qualifier"/>
                <ItemRef ItemOID="IT.MB.MBSPEC" Mandatory="No" OrderNumber="10" Role="Record Qualifier"/>
                <ItemRef ItemOID="IT.MB.MBMETHOD" Mandatory="No" OrderNumber="11" Role="Record Qualifier"/>
                <ItemRef ItemOID="IT.MB.VISITNUM" Mandatory="No" OrderNumber="12" Role="Timing"/>
                <ItemRef ItemOID="IT.MB.MBDTC" Mandatory="No" OrderNumber="13" Role="Timing"/>
                <def:Class Name="FINDINGS"/>
                <def:leaf ID="LF.MB" xlink:href="mb.ndjson">
                    <def:title>mb.ndjson</def:title>
                </def:leaf>
            </ItemGroupDef>
            <ItemGroupDef OID="IG.EC" Name="EC" Domain="EC" SASDatasetName="EC"
                          def:Structure="One record per protocol-specified study treatment, collected-dosing interval, per subject, per mood"
                          IsReferenceData="No" Repeating="Yes" Purpose="Tabulation" def:StandardOID="STD.SDTMIG">
                <Description>
                    <TranslatedText xml:lang="en">Exposure as Collected</TranslatedText>
                </Description>
                <ItemRef ItemOID="IT.EC.STUDYID" Mandatory="Yes" OrderNumber="1" Role="Identifier"/>
                <ItemRef ItemOID="IT.EC.DOMAIN" Mandatory="Yes" OrderNumber="2" Role="Identifier"/>
                <ItemRef ItemOID="IT.EC.USUBJID" Mandatory="Yes" OrderNumber="3" Role="Identifier"/>
                <ItemRef ItemOID="IT.EC.ECSEQ" Mandatory="Yes" OrderNumber="4" Role="Identifier"/>
                <ItemRef ItemOID="IT.EC.ECREFID" Mandatory="No" OrderNumber="5" Role="Identifier"/>
                <ItemRef ItemOID="IT.EC.ECTRT" Mandatory="Yes" OrderNumber="6" Role="Topic"/>
                <ItemRef ItemOID="IT.EC.ECDOSE" Mandatory="No" OrderNumber="7" Role="Record Qualifier"/>
                <ItemRef ItemOID="IT.EC.ECDOSTXT" Mandatory="No" OrderNumber="8" Role="Record Qualifier"/>
                <ItemRef ItemOID="IT.EC.ECDOSU" Mandatory="No" OrderNumber="9" Role="Variable Qualifier"/>
                <ItemRef ItemOID="IT.EC.ECDOSFRM" Mandatory="No" OrderNumber="10" Role="Variable Qualifier"/>
                <ItemRef ItemOID="IT.EC.ECDOSFRQ" Mandatory="No" OrderNumber="11" Role="Record Qualifier"/>
                <ItemRef ItemOID="IT.EC.ECDOSRGM" Mandatory="No" OrderNumber="12" Role="Record Qualifier"/>
                <ItemRef ItemOID="IT.EC.ECROUTE" Mandatory="No" OrderNumber="13" Role="Variable Qualifier"/>
                <ItemRef ItemOID="IT.EC.ECLOC" Mandatory="No" OrderNumber="14" Role="Record Qualifier"/>
                <ItemRef ItemOID="IT.EC.ECLAT" Mandatory="No" OrderNumber="15" Role="Variable Qualifier"/>
                <ItemRef ItemOID="IT.EC.ECDIR" Mandatory="No" OrderNumber="16" Role="Variable Qualifier"/>
                <ItemRef ItemOID="IT.EC.ECSTDTC" Mandatory="No" OrderNumber="17" Role="Timing"/>
                <ItemRef ItemOID="IT.EC.ECENDTC" Mandatory="No" OrderNumber="18" Role="Timing"/>
                <def:Class Name="INTERVENTIONS"/>
                <def:leaf ID="LF.EC" xlink:href="ec.ndjson">
                    <def:title>ec.ndjson</def:title>
                </def:leaf>
            </ItemGroupDef>
            <ItemGroupDef OID="IG.AE" Name="AE" Domain="AE" SASDatasetName="AE"
                          def:Structure="One record per adverse event per subject" IsReferenceData="No" Repeating="Yes"
                          Purpose="Tabulation" def:StandardOID="STD.SDTMIG">
                <Description>
                    <TranslatedText xml:lang="en">Adverse Events</TranslatedText>
                </Description>
                <ItemRef ItemOID="IT.AE.STUDYID" Mandatory="Yes" OrderNumber="1" Role="Identifier"/>
                <ItemRef ItemOID="IT.AE.DOMAIN" Mandatory="Yes" OrderNumber="2" Role="Identifier"/>
                <ItemRef ItemOID="IT.AE.USUBJID" Mandatory="Yes" OrderNumber="3" Role="Identifier"/>
                <ItemRef ItemOID="IT.AE.AESEQ" Mandatory="Yes" OrderNumber="4" Role="Identifier"/>
                <ItemRef ItemOID="IT.AE.AETERM" Mandatory="Yes" OrderNumber="5" Role="Topic"/>
                <ItemRef ItemOID="IT.AE.AELLT" Mandatory="No" OrderNumber="6" Role="Variable Qualifier"/>
                <ItemRef ItemOID="IT.AE.AELLTCD" Mandatory="No" OrderNumber="7" Role="Variable Qualifier"/>
                <ItemRef ItemOID="IT.AE.AEDECOD" Mandatory="Yes" OrderNumber="8" Role="Synonym Qualifier"/>
                <ItemRef ItemOID="IT.AE.AEPTCD" Mandatory="No" OrderNumber="9" Role="Variable Qualifier"/>
                <ItemRef ItemOID="IT.AE.AEHLT" Mandatory="No" OrderNumber="10" Role="Variable Qualifier"/>
                <ItemRef ItemOID="IT.AE.AEHLTCD" Mandatory="No" OrderNumber="11" Role="Variable Qualifier"/>
                <ItemRef ItemOID="IT.AE.AEHLGT" Mandatory="No" OrderNumber="12" Role="Variable Qualifier"/>
                <ItemRef ItemOID="IT.AE.AEHLGTCD" Mandatory="No" OrderNumber="13" Role="Variable Qualifier"/>
                <ItemRef ItemOID="IT.AE.AECAT" Mandatory="No" OrderNumber="14" Role="Grouping Qualifier"/>
                <ItemRef ItemOID="IT.AE.AESCAT" Mandatory="No" OrderNumber="15" Role="Grouping Qualifier"/>
                <ItemRef ItemOID="IT.AE.AEPRESP" Mandatory="No" OrderNumber="16" Role="Variable Qualifier"/>
                <ItemRef ItemOID="IT.AE.AEBODSYS" Mandatory="No" OrderNumber="17" Role="Record Qualifier"/>
                <ItemRef ItemOID="IT.AE.AEBDSYCD" Mandatory="No" OrderNumber="18" Role="Variable Qualifier"/>
                <ItemRef ItemOID="IT.AE.AESOC" Mandatory="No" OrderNumber="19" Role="Variable Qualifier"/>
                <ItemRef ItemOID="IT.AE.AESOCCD" Mandatory="No" OrderNumber="20" Role="Variable Qualifier"/>
                <ItemRef ItemOID="IT.AE.AELOC" Mandatory="No" OrderNumber="21" Role="Record Qualifier"/>
                <ItemRef ItemOID="IT.AE.AESEV" Mandatory="No" OrderNumber="22" Role="Record Qualifier"/>
                <ItemRef ItemOID="IT.AE.AESER" Mandatory="No" OrderNumber="23" Role="Record Qualifier"/>
                <ItemRef ItemOID="IT.AE.AEACN" Mandatory="No" OrderNumber="24" Role="Record Qualifier"/>
                <ItemRef ItemOID="IT.AE.AEACNOTH" Mandatory="No" OrderNumber="25" Role="Record Qualifier"/>
                <ItemRef ItemOID="IT.AE.AEREL" Mandatory="No" OrderNumber="26" Role="Record Qualifier"/>
                <ItemRef ItemOID="IT.AE.AERELNST" Mandatory="No" OrderNumber="27" Role="Record Qualifier"/>
                <ItemRef ItemOID="IT.AE.AEPATT" Mandatory="No" OrderNumber="28" Role="Record Qualifier"/>
                <ItemRef ItemOID="IT.AE.AEOUT" Mandatory="No" OrderNumber="29" Role="Record Qualifier"/>
                <ItemRef ItemOID="IT.AE.AESCAN" Mandatory="No" OrderNumber="30" Role="Record Qualifier"/>
                <ItemRef ItemOID="IT.AE.AESCONG" Mandatory="No" OrderNumber="31" Role="Record Qualifier"/>
                <ItemRef ItemOID="IT.AE.AESDISAB" Mandatory="No" OrderNumber="32" Role="Record Qualifier"/>
                <ItemRef ItemOID="IT.AE.AESDTH" Mandatory="No" OrderNumber="33" Role="Record Qualifier"/>
                <ItemRef ItemOID="IT.AE.AESHOSP" Mandatory="No" OrderNumber="34" Role="Record Qualifier"/>
                <ItemRef ItemOID="IT.AE.AESLIFE" Mandatory="No" OrderNumber="35" Role="Record Qualifier"/>
                <ItemRef ItemOID="IT.AE.AESOD" Mandatory="No" OrderNumber="36" Role="Record Qualifier"/>
                <ItemRef ItemOID="IT.AE.AESMIE" Mandatory="No" OrderNumber="37" Role="Record Qualifier"/>
                <ItemRef ItemOID="IT.AE.AECONTRT" Mandatory="No" OrderNumber="38" Role="Record Qualifier"/>
                <ItemRef ItemOID="IT.AE.AETOXGR" Mandatory="No" OrderNumber="39" Role="Record Qualifier"/>
                <ItemRef ItemOID="IT.AE.AESTDTC" Mandatory="No" OrderNumber="40" Role="Timing"/>
                <ItemRef ItemOID="IT.AE.AEENDTC" Mandatory="No" OrderNumber="41" Role="Timing"/>
                <ItemRef ItemOID="IT.AE.AEENRF" Mandatory="No" OrderNumber="42" Role="Timing"/>
                <ItemRef ItemOID="IT.AE.AEENRTPT" Mandatory="No" OrderNumber="43" Role="Timing"/>
                <ItemRef ItemOID="IT.AE.AEENTPT" Mandatory="No" OrderNumber="44" Role="Timing"/>
                <def:Class Name="EVENTS"/>
                <def:leaf ID="LF.AE" xlink:href="ae.ndjson">
                    <def:title>ae.ndjson</def:title>
                </def:leaf>
            </ItemGroupDef>
            <ItemGroupDef OID="IG.TS" Name="TS" Domain="TS" SASDatasetName="TS"
                          def:Structure="One record per trial summary parameter value" IsReferenceData="Yes"
                          Repeating="No" Purpose="Tabulation" def:StandardOID="STD.SDTMIG">
                <Description>
                    <TranslatedText xml:lang="en">Trial Summary</TranslatedText>
                </Description>
                <ItemRef ItemOID="IT.TS.STUDYID" Mandatory="Yes" OrderNumber="1" Role="Identifier"/>
                <ItemRef ItemOID="IT.TS.DOMAIN" Mandatory="Yes" OrderNumber="2" Role="Identifier"/>
                <ItemRef ItemOID="IT.TS.TSSEQ" Mandatory="Yes" OrderNumber="3" Role="Identifier"/>
                <ItemRef ItemOID="IT.TS.TSPARMCD" Mandatory="Yes" OrderNumber="4" Role="Topic"/>
                <ItemRef ItemOID="IT.TS.TSPARM" Mandatory="Yes" OrderNumber="5" Role="Synonym Qualifier"/>
                <ItemRef ItemOID="IT.TS.TSVAL" Mandatory="No" OrderNumber="6" Role="Result Qualifier"/>
                <ItemRef ItemOID="IT.TS.TSVALCD" Mandatory="No" OrderNumber="7" Role="Result Qualifier"/>
                <ItemRef ItemOID="IT.TS.TSVCDREF" Mandatory="No" OrderNumber="8" Role="Result Qualifier"/>
                <ItemRef ItemOID="IT.TS.TSVCDVER" Mandatory="No" OrderNumber="9" Role="Result Qualifier"/>
                <def:Class Name="TRIAL DESIGN"/>
                <def:leaf ID="LF.TS" xlink:href="ts.ndjson">
                    <def:title>ts.ndjson</def:title>
                </def:leaf>
            </ItemGroupDef>
            <ItemGroupDef OID="IG.TA" Name="TA" Domain="TA" SASDatasetName="TA"
                          def:Structure="One record per planned Element per Arm" IsReferenceData="Yes" Repeating="No"
                          Purpose="Tabulation" def:StandardOID="STD.SDTMIG">
                <Description>
                    <TranslatedText xml:lang="en">Trial Arms</TranslatedText>
                </Description>
                <ItemRef ItemOID="IT.TA.STUDYID" Mandatory="Yes" OrderNumber="1" Role="Identifier"/>
                <ItemRef ItemOID="IT.TA.DOMAIN" Mandatory="Yes" OrderNumber="2" Role="Identifier"/>
                <ItemRef ItemOID="IT.TA.ARMCD" Mandatory="Yes" OrderNumber="3" Role="Topic"/>
                <ItemRef ItemOID="IT.TA.ARM" Mandatory="Yes" OrderNumber="4" Role="Synonym Qualifier"/>
                <ItemRef ItemOID="IT.TA.TAETORD" Mandatory="Yes" OrderNumber="5" Role="Timing"/>
                <ItemRef ItemOID="IT.TA.ETCD" Mandatory="Yes" OrderNumber="6" Role="Record Qualifier"/>
                <ItemRef ItemOID="IT.TA.ELEMENT" Mandatory="No" OrderNumber="7" Role="Synonym Qualifier"/>
                <ItemRef ItemOID="IT.TA.TABRANCH" Mandatory="No" OrderNumber="8" Role="Rule"/>
                <ItemRef ItemOID="IT.TA.TATRANS" Mandatory="No" OrderNumber="9" Role="Rule"/>
                <ItemRef ItemOID="IT.TA.EPOCH" Mandatory="Yes" OrderNumber="10" Role="Timing"/>
                <def:Class Name="TRIAL DESIGN"/>
                <def:leaf ID="LF.TA" xlink:href="ta.ndjson">
                    <def:title>ta.ndjson</def:title>
                </def:leaf>
            </ItemGroupDef>
            <ItemGroupDef OID="IG.TE" Name="TE" Domain="TE" SASDatasetName="TE"
                          def:Structure="One record per planned Element" IsReferenceData="Yes" Repeating="No"
                          Purpose="Tabulation" def:StandardOID="STD.SDTMIG">
                <Description>
                    <TranslatedText xml:lang="en">Trial Elements</TranslatedText>
                </Description>
                <ItemRef ItemOID="IT.TE.STUDYID" Mandatory="Yes" OrderNumber="1" Role="Identifier"/>
                <ItemRef ItemOID="IT.TE.DOMAIN" Mandatory="Yes" OrderNumber="2" Role="Identifier"/>
                <ItemRef ItemOID="IT.TE.ETCD" Mandatory="Yes" OrderNumber="3" Role="Topic"/>
                <ItemRef ItemOID="IT.TE.ELEMENT" Mandatory="Yes" OrderNumber="4" Role="Synonym Qualifier"/>
                <ItemRef ItemOID="IT.TE.TESTRL" Mandatory="Yes" OrderNumber="5" Role="Rule"/>
                <def:Class Name="TRIAL DESIGN"/>
                <def:leaf ID="LF.TE" xlink:href="te.ndjson">
                    <def:title>te.ndjson</def:title>
                </def:leaf>
            </ItemGroupDef>
            <ItemGroupDef OID="IG.TI" Name="TI" Domain="TI" SASDatasetName="TI"
                          def:Structure="One record per I/E criterion" IsReferenceData="Yes" Repeating="No"
                          Purpose="Tabulation" def:StandardOID="STD.SDTMIG">
                <Description>
                    <TranslatedText xml:lang="en">Trial Inclusion/Exclusion Criteria</TranslatedText>
                </Description>
                <ItemRef ItemOID="IT.TI.STUDYID" Mandatory="Yes" OrderNumber="1" Role="Identifier"/>
                <ItemRef ItemOID="IT.TI.DOMAIN" Mandatory="Yes" OrderNumber="2" Role="Identifier"/>
                <ItemRef ItemOID="IT.TI.IETESTCD" Mandatory="Yes" OrderNumber="3" Role="Topic"/>
                <ItemRef ItemOID="IT.TI.IETEST" Mandatory="Yes" OrderNumber="4" Role="Synonym Qualifier"/>
                <ItemRef ItemOID="IT.TI.IECAT" Mandatory="Yes" OrderNumber="5" Role="Grouping Qualifier"/>
                <def:Class Name="TRIAL DESIGN"/>
                <def:leaf ID="LF.TI" xlink:href="ti.ndjson">
                    <def:title>ti.ndjson</def:title>
                </def:leaf>
            </ItemGroupDef>
            <ItemGroupDef OID="IG.TV" Name="TV" Domain="TV" SASDatasetName="TV"
                          def:Structure="One record per planned Visit per Arm" IsReferenceData="Yes" Repeating="No"
                          Purpose="Tabulation" def:StandardOID="STD.SDTMIG">
                <Description>
                    <TranslatedText xml:lang="en">Trial Visits</TranslatedText>
                </Description>
                <ItemRef ItemOID="IT.TV.STUDYID" Mandatory="Yes" OrderNumber="1" Role="Identifier"/>
                <ItemRef ItemOID="IT.TV.DOMAIN" Mandatory="Yes" OrderNumber="2" Role="Identifier"/>
                <ItemRef ItemOID="IT.TV.VISITNUM" Mandatory="Yes" OrderNumber="3" Role="Topic"/>
                <ItemRef ItemOID="IT.TV.VISIT" Mandatory="Yes" OrderNumber="4" Role="Synonym Qualifier"/>
                <ItemRef ItemOID="IT.TV.VISITDY" Mandatory="No" OrderNumber="5" Role="Timing"/>
                <ItemRef ItemOID="IT.TV.ARMCD" Mandatory="No" OrderNumber="6" Role="Record Qualifier"/>
                <ItemRef ItemOID="IT.TV.ARM" Mandatory="No" OrderNumber="7" Role="Synonym Qualifier"/>
                <ItemRef ItemOID="IT.TV.TVSTRL" Mandatory="Yes" OrderNumber="8" Role="Rule"/>
                <ItemRef ItemOID="IT.TV.TVENRL" Mandatory="No" OrderNumber="9" Role="Rule"/>
                <def:Class Name="TRIAL DESIGN"/>
                <def:leaf ID="LF.TV" xlink:href="tv.ndjson">
                    <def:title>tv.ndjson</def:title>
                </def:leaf>
            </ItemGroupDef>
            <ItemGroupDef OID="IG.SV" Name="SV" Domain="SV" SASDatasetName="SV"
                          def:Structure="One record per actual or planned visit per subject" IsReferenceData="No"
                          Repeating="Yes" Purpose="Tabulation" def:StandardOID="STD.SDTMIG">
                <Description>
                    <TranslatedText xml:lang="en">Subject Visits</TranslatedText>
                </Description>
                <ItemRef ItemOID="IT.SV.STUDYID" Mandatory="Yes" OrderNumber="1" Role="Identifier"/>
                <ItemRef ItemOID="IT.SV.DOMAIN" Mandatory="Yes" OrderNumber="2" Role="Identifier"/>
                <ItemRef ItemOID="IT.SV.USUBJID" Mandatory="Yes" OrderNumber="3" Role="Identifier"/>
                <ItemRef ItemOID="IT.SV.VISITNUM" Mandatory="Yes" OrderNumber="4" Role="Topic"/>
                <ItemRef ItemOID="IT.SV.VISIT" Mandatory="No" OrderNumber="5" Role="Synonym Qualifier"/>
                <ItemRef ItemOID="IT.SV.SVPRESP" Mandatory="No" OrderNumber="6" Role="Variable Qualifier"/>
                <ItemRef ItemOID="IT.SV.SVOCCUR" Mandatory="No" OrderNumber="7" Role="Record Qualifier"/>
                <ItemRef ItemOID="IT.SV.SVCNTMOD" Mandatory="No" OrderNumber="8" Role="Record Qualifier"/>
                <ItemRef ItemOID="IT.SV.SVSTDTC" Mandatory="No" OrderNumber="9" Role="Timing"/>
                <ItemRef ItemOID="IT.SV.SVENDTC" Mandatory="No" OrderNumber="10" Role="Timing"/>
                <def:Class Name="SPECIAL PURPOSE"/>
                <def:leaf ID="LF.SV" xlink:href="sv.ndjson">
                    <def:title>sv.ndjson</def:title>
                </def:leaf>
            </ItemGroupDef>
            <ItemGroupDef OID="IG.IE" Name="IE" Domain="IE" SASDatasetName="IE"
                          def:Structure="One record per inclusion/exclusion criterion not met per subject"
                          IsReferenceData="No" Repeating="Yes" Purpose="Tabulation" def:StandardOID="STD.SDTMIG">
                <Description>
                    <TranslatedText xml:lang="en">Inclusion/Exclusion Criteria Not Met</TranslatedText>
                </Description>
                <ItemRef ItemOID="IT.IE.STUDYID" Mandatory="Yes" OrderNumber="1" Role="Identifier"/>
                <ItemRef ItemOID="IT.IE.DOMAIN" Mandatory="Yes" OrderNumber="2" Role="Identifier"/>
                <ItemRef ItemOID="IT.IE.USUBJID" Mandatory="Yes" OrderNumber="3" Role="Identifier"/>
                <ItemRef ItemOID="IT.IE.IESEQ" Mandatory="Yes" OrderNumber="4" Role="Identifier"/>
                <ItemRef ItemOID="IT.IE.IETESTCD" Mandatory="Yes" OrderNumber="5" Role="Topic"/>
                <ItemRef ItemOID="IT.IE.IETEST" Mandatory="Yes" OrderNumber="6" Role="Synonym Qualifier"/>
                <ItemRef ItemOID="IT.IE.IECAT" Mandatory="Yes" OrderNumber="7" Role="Grouping Qualifier"/>
                <ItemRef ItemOID="IT.IE.IEORRES" Mandatory="Yes" OrderNumber="8" Role="Result Qualifier"/>
                <ItemRef ItemOID="IT.IE.IESTRESC" Mandatory="Yes" OrderNumber="9" Role="Result Qualifier"/>
                <def:Class Name="FINDINGS"/>
                <def:leaf ID="LF.IE" xlink:href="ie.ndjson">
                    <def:title>ie.ndjson</def:title>
                </def:leaf>
            </ItemGroupDef>
            <ItemGroupDef OID="IG.SE" Name="SE" Domain="SE" SASDatasetName="SE"
                          def:Structure="One record per actual Element per subject" IsReferenceData="No" Repeating="Yes"
                          Purpose="Tabulation" def:StandardOID="STD.SDTMIG">
                <Description>
                    <TranslatedText xml:lang="en">Subject Elements</TranslatedText>
                </Description>
                <ItemRef ItemOID="IT.SE.STUDYID" Mandatory="Yes" OrderNumber="1" Role="Identifier"/>
                <ItemRef ItemOID="IT.SE.DOMAIN" Mandatory="Yes" OrderNumber="2" Role="Identifier"/>
                <ItemRef ItemOID="IT.SE.USUBJID" Mandatory="Yes" OrderNumber="3" Role="Identifier"/>
                <ItemRef ItemOID="IT.SE.SESEQ" Mandatory="Yes" OrderNumber="4" Role="Identifier"/>
                <ItemRef ItemOID="IT.SE.ETCD" Mandatory="Yes" OrderNumber="5" Role="Topic"/>
                <ItemRef ItemOID="IT.SE.ELEMENT" Mandatory="No" OrderNumber="6" Role="Synonym Qualifier"/>
                <ItemRef ItemOID="IT.SE.EPOCH" Mandatory="No" OrderNumber="7" Role="Timing"/>
                <ItemRef ItemOID="IT.SE.SESTDTC" Mandatory="Yes" OrderNumber="8" Role="Timing"/>
                <ItemRef ItemOID="IT.SE.SEENDTC" Mandatory="No" OrderNumber="9" Role="Timing"/>
                <def:Class Name="SPECIAL PURPOSE"/>
                <def:leaf ID="LF.SE" xlink:href="se.ndjson">
                    <def:title>se.ndjson</def:title>
                </def:leaf>
            </ItemGroupDef>
            <ItemDef OID="IT.DS.STUDYID" Name="STUDYID" DataType="text" SASFieldName="STUDYID" Length="__PLACEHOLDER__">
                <Description>
                    <TranslatedText xml:lang="en">Study Identifier</TranslatedText>
                </Description>
                <def:Origin Type="__PLACEHOLDER__" Source="__PLACEHOLDER__"/>
            </ItemDef>
            <ItemDef OID="IT.DS.DOMAIN" Name="DOMAIN" DataType="text" SASFieldName="DOMAIN" Length="__PLACEHOLDER__">
                <Description>
                    <TranslatedText xml:lang="en">Domain Abbreviation</TranslatedText>
                </Description>
                <def:Origin Type="__PLACEHOLDER__" Source="__PLACEHOLDER__"/>
            </ItemDef>
            <ItemDef OID="IT.DS.USUBJID" Name="USUBJID" DataType="text" SASFieldName="USUBJID" Length="__PLACEHOLDER__">
                <Description>
                    <TranslatedText xml:lang="en">Unique Subject Identifier</TranslatedText>
                </Description>
                <def:Origin Type="__PLACEHOLDER__" Source="__PLACEHOLDER__"/>
            </ItemDef>
            <ItemDef OID="IT.DS.DSSEQ" Name="DSSEQ" DataType="integer" SASFieldName="DSSEQ" Length="__PLACEHOLDER__">
                <Description>
                    <TranslatedText xml:lang="en">Sequence Number</TranslatedText>
                </Description>
                <def:Origin Type="__PLACEHOLDER__" Source="__PLACEHOLDER__"/>
            </ItemDef>
            <ItemDef OID="IT.DS.DSTERM" Name="DSTERM" DataType="text" SASFieldName="DSTERM" Length="200">
                <Description>
                    <TranslatedText xml:lang="en">Reported Term for the Disposition Event</TranslatedText>
                </Description>
                <def:Origin Type="Collected" Source="Investigator">
                    <def:DocumentRef leafID="LF.acrf">
                        <def:PDFPageRef PageRefs="__PLACEHOLDER__" Type="PhysicalRef"/>
                    </def:DocumentRef>
                </def:Origin>
            </ItemDef>
            <ItemDef OID="IT.DS.DSDECOD" Name="DSDECOD" DataType="text" SASFieldName="DSDECOD" Length="200">
                <Description>
                    <TranslatedText xml:lang="en">Standardized Disposition Term</TranslatedText>
                </Description>
                <CodeListRef CodeListOID="CL.NCOMPLT"/>
                <def:Origin Type="Assigned" Source="Sponsor"/>
            </ItemDef>
            <ItemDef OID="IT.DS.DSCAT" Name="DSCAT" DataType="text" SASFieldName="DSCAT" Length="200">
                <Description>
                    <TranslatedText xml:lang="en">Category for Disposition Event</TranslatedText>
                </Description>
                <CodeListRef CodeListOID="CL.DSCAT"/>
                <def:Origin Type="Assigned" Source="Sponsor"/>
            </ItemDef>
            <ItemDef OID="IT.DS.DSSCAT" Name="DSSCAT" DataType="text" SASFieldName="DSSCAT" Length="200">
                <Description>
                    <TranslatedText xml:lang="en">Subcategory for Disposition Event</TranslatedText>
                </Description>
                <CodeListRef CodeListOID="CL.DSSCAT"/>
                <def:Origin Type="Assigned" Source="Sponsor"/>
            </ItemDef>
            <ItemDef OID="IT.DS.DSSTDTC" Name="DSSTDTC" DataType="datetime" SASFieldName="DSSTDTC">
                <Description>
                    <TranslatedText xml:lang="en">Start Date/Time of Disposition Event</TranslatedText>
                </Description>
                <def:Origin Type="Collected" Source="Investigator">
                    <def:DocumentRef leafID="LF.acrf">
                        <def:PDFPageRef PageRefs="__PLACEHOLDER__" Type="PhysicalRef"/>
                    </def:DocumentRef>
                </def:Origin>
            </ItemDef>
            <ItemDef OID="IT.DS.DSSTDY" Name="DSSTDY" DataType="integer" SASFieldName="DSSTDY" Length="__PLACEHOLDER__">
                <Description>
                    <TranslatedText xml:lang="en">Study Day of Start of Disposition Event</TranslatedText>
                </Description>
                <def:Origin Type="__PLACEHOLDER__" Source="__PLACEHOLDER__"/>
            </ItemDef>
            <ItemDef OID="IT.DM.STUDYID" Name="STUDYID" DataType="text" SASFieldName="STUDYID" Length="__PLACEHOLDER__">
                <Description>
                    <TranslatedText xml:lang="en">Study Identifier</TranslatedText>
                </Description>
                <def:Origin Type="__PLACEHOLDER__" Source="__PLACEHOLDER__"/>
            </ItemDef>
            <ItemDef OID="IT.DM.DOMAIN" Name="DOMAIN" DataType="text" SASFieldName="DOMAIN" Length="__PLACEHOLDER__">
                <Description>
                    <TranslatedText xml:lang="en">Domain Abbreviation</TranslatedText>
                </Description>
                <def:Origin Type="__PLACEHOLDER__" Source="__PLACEHOLDER__"/>
            </ItemDef>
            <ItemDef OID="IT.DM.USUBJID" Name="USUBJID" DataType="text" SASFieldName="USUBJID" Length="__PLACEHOLDER__">
                <Description>
                    <TranslatedText xml:lang="en">Unique Subject Identifier</TranslatedText>
                </Description>
                <def:Origin Type="__PLACEHOLDER__" Source="__PLACEHOLDER__"/>
            </ItemDef>
            <ItemDef OID="IT.DM.SUBJID" Name="SUBJID" DataType="text" SASFieldName="SUBJID" Length="__PLACEHOLDER__">
                <Description>
                    <TranslatedText xml:lang="en">Subject Identifier for the Study</TranslatedText>
                </Description>
                <def:Origin Type="__PLACEHOLDER__" Source="__PLACEHOLDER__"/>
            </ItemDef>
            <ItemDef OID="IT.DM.RFSTDTC" Name="RFSTDTC" DataType="datetime" SASFieldName="RFSTDTC">
                <Description>
                    <TranslatedText xml:lang="en">Subject Reference Start Date/Time</TranslatedText>
                </Description>
                <def:Origin Type="__PLACEHOLDER__" Source="__PLACEHOLDER__"/>
            </ItemDef>
            <ItemDef OID="IT.DM.RFENDTC" Name="RFENDTC" DataType="datetime" SASFieldName="RFENDTC">
                <Description>
                    <TranslatedText xml:lang="en">Subject Reference End Date/Time</TranslatedText>
                </Description>
                <def:Origin Type="__PLACEHOLDER__" Source="__PLACEHOLDER__"/>
            </ItemDef>
            <ItemDef OID="IT.DM.RFXSTDTC" Name="RFXSTDTC" DataType="datetime" SASFieldName="RFXSTDTC">
                <Description>
                    <TranslatedText xml:lang="en">Date/Time of First Study Treatment</TranslatedText>
                </Description>
                <def:Origin Type="__PLACEHOLDER__" Source="__PLACEHOLDER__"/>
            </ItemDef>
            <ItemDef OID="IT.DM.RFXENDTC" Name="RFXENDTC" DataType="datetime" SASFieldName="RFXENDTC">
                <Description>
                    <TranslatedText xml:lang="en">Date/Time of Last Study Treatment</TranslatedText>
                </Description>
                <def:Origin Type="__PLACEHOLDER__" Source="__PLACEHOLDER__"/>
            </ItemDef>
            <ItemDef OID="IT.DM.RFICDTC" Name="RFICDTC" DataType="datetime" SASFieldName="RFICDTC">
                <Description>
                    <TranslatedText xml:lang="en">Date/Time of Informed Consent</TranslatedText>
                </Description>
                <def:Origin Type="__PLACEHOLDER__" Source="__PLACEHOLDER__"/>
            </ItemDef>
            <ItemDef OID="IT.DM.RFPENDTC" Name="RFPENDTC" DataType="datetime" SASFieldName="RFPENDTC">
                <Description>
                    <TranslatedText xml:lang="en">Date/Time of End of Participation</TranslatedText>
                </Description>
                <def:Origin Type="__PLACEHOLDER__" Source="__PLACEHOLDER__"/>
            </ItemDef>
            <ItemDef OID="IT.DM.DTHDTC" Name="DTHDTC" DataType="datetime" SASFieldName="DTHDTC">
                <Description>
                    <TranslatedText xml:lang="en">Date/Time of Death</TranslatedText>
                </Description>
                <def:Origin Type="__PLACEHOLDER__" Source="__PLACEHOLDER__"/>
            </ItemDef>
            <ItemDef OID="IT.DM.DTHFL" Name="DTHFL" DataType="text" SASFieldName="DTHFL" Length="__PLACEHOLDER__">
                <Description>
                    <TranslatedText xml:lang="en">Subject Death Flag</TranslatedText>
                </Description>
                <CodeListRef CodeListOID="CL.NY"/>
                <def:Origin Type="__PLACEHOLDER__" Source="__PLACEHOLDER__"/>
            </ItemDef>
            <ItemDef OID="IT.DM.SITEID" Name="SITEID" DataType="text" SASFieldName="SITEID" Length="__PLACEHOLDER__">
                <Description>
                    <TranslatedText xml:lang="en">Study Site Identifier</TranslatedText>
                </Description>
                <def:Origin Type="__PLACEHOLDER__" Source="__PLACEHOLDER__"/>
            </ItemDef>
            <ItemDef OID="IT.DM.AGE" Name="AGE" DataType="float" SASFieldName="AGE" Length="6" SignificantDigits="2"
                     def:DisplayFormat="3.2">
                <Description>
                    <TranslatedText xml:lang="en">Age</TranslatedText>
                </Description>
                <def:Origin Type="Collected" Source="Investigator">
                    <def:DocumentRef leafID="LF.acrf">
                        <def:PDFPageRef PageRefs="__PLACEHOLDER__" Type="PhysicalRef"/>
                    </def:DocumentRef>
                </def:Origin>
            </ItemDef>
            <ItemDef OID="IT.DM.AGEU" Name="AGEU" DataType="text" SASFieldName="AGEU" Length="20">
                <Description>
                    <TranslatedText xml:lang="en">Age Units</TranslatedText>
                </Description>
                <CodeListRef CodeListOID="CL.AGEU"/>
                <def:Origin Type="Collected" Source="Investigator">
                    <def:DocumentRef leafID="LF.acrf">
                        <def:PDFPageRef PageRefs="__PLACEHOLDER__" Type="PhysicalRef"/>
                    </def:DocumentRef>
                </def:Origin>
            </ItemDef>
            <ItemDef OID="IT.DM.SEX" Name="SEX" DataType="text" SASFieldName="SEX" Length="100">
                <Description>
                    <TranslatedText xml:lang="en">Sex</TranslatedText>
                </Description>
                <CodeListRef CodeListOID="CL.SEX"/>
                <def:Origin Type="Collected" Source="Investigator">
                    <def:DocumentRef leafID="LF.acrf">
                        <def:PDFPageRef PageRefs="__PLACEHOLDER__" Type="PhysicalRef"/>
                    </def:DocumentRef>
                </def:Origin>
            </ItemDef>
            <ItemDef OID="IT.DM.RACE" Name="RACE" DataType="text" SASFieldName="RACE" Length="100">
                <Description>
                    <TranslatedText xml:lang="en">Race</TranslatedText>
                </Description>
                <CodeListRef CodeListOID="CL.RACE"/>
                <def:Origin Type="Collected" Source="Investigator">
                    <def:DocumentRef leafID="LF.acrf">
                        <def:PDFPageRef PageRefs="__PLACEHOLDER__" Type="PhysicalRef"/>
                    </def:DocumentRef>
                </def:Origin>
            </ItemDef>
            <ItemDef OID="IT.DM.ETHNIC" Name="ETHNIC" DataType="text" SASFieldName="ETHNIC" Length="100">
                <Description>
                    <TranslatedText xml:lang="en">Ethnicity</TranslatedText>
                </Description>
                <CodeListRef CodeListOID="CL.ETHNIC"/>
                <def:Origin Type="Collected" Source="Investigator">
                    <def:DocumentRef leafID="LF.acrf">
                        <def:PDFPageRef PageRefs="__PLACEHOLDER__" Type="PhysicalRef"/>
                    </def:DocumentRef>
                </def:Origin>
            </ItemDef>
            <ItemDef OID="IT.DM.ARMCD" Name="ARMCD" DataType="text" SASFieldName="ARMCD" Length="__PLACEHOLDER__">
                <Description>
                    <TranslatedText xml:lang="en">Planned Arm Code</TranslatedText>
                </Description>
                <def:Origin Type="__PLACEHOLDER__" Source="__PLACEHOLDER__"/>
            </ItemDef>
            <ItemDef OID="IT.DM.ARM" Name="ARM" DataType="text" SASFieldName="ARM" Length="__PLACEHOLDER__">
                <Description>
                    <TranslatedText xml:lang="en">Description of Planned Arm</TranslatedText>
                </Description>
                <def:Origin Type="__PLACEHOLDER__" Source="__PLACEHOLDER__"/>
            </ItemDef>
            <ItemDef OID="IT.DM.ACTARMCD" Name="ACTARMCD" DataType="text" SASFieldName="ACTARMCD"
                     Length="__PLACEHOLDER__">
                <Description>
                    <TranslatedText xml:lang="en">Actual Arm Code</TranslatedText>
                </Description>
                <def:Origin Type="__PLACEHOLDER__" Source="__PLACEHOLDER__"/>
            </ItemDef>
            <ItemDef OID="IT.DM.ACTARM" Name="ACTARM" DataType="text" SASFieldName="ACTARM" Length="__PLACEHOLDER__">
                <Description>
                    <TranslatedText xml:lang="en">Description of Actual Arm</TranslatedText>
                </Description>
                <def:Origin Type="__PLACEHOLDER__" Source="__PLACEHOLDER__"/>
            </ItemDef>
            <ItemDef OID="IT.DM.ARMNRS" Name="ARMNRS" DataType="text" SASFieldName="ARMNRS" Length="__PLACEHOLDER__">
                <Description>
                    <TranslatedText xml:lang="en">Reason Arm and/or Actual Arm is Null</TranslatedText>
                </Description>
                <CodeListRef CodeListOID="CL.ARMNULRS"/>
                <def:Origin Type="__PLACEHOLDER__" Source="__PLACEHOLDER__"/>
            </ItemDef>
            <ItemDef OID="IT.DM.ACTARMUD" Name="ACTARMUD" DataType="text" SASFieldName="ACTARMUD"
                     Length="__PLACEHOLDER__">
                <Description>
                    <TranslatedText xml:lang="en">Description of Unplanned Actual Arm</TranslatedText>
                </Description>
                <def:Origin Type="__PLACEHOLDER__" Source="__PLACEHOLDER__"/>
            </ItemDef>
            <ItemDef OID="IT.DM.COUNTRY" Name="COUNTRY" DataType="text" SASFieldName="COUNTRY" Length="__PLACEHOLDER__">
                <Description>
                    <TranslatedText xml:lang="en">Country</TranslatedText>
                </Description>
                <def:Origin Type="__PLACEHOLDER__" Source="__PLACEHOLDER__"/>
            </ItemDef>
            <ItemDef OID="IT.DM.DMDTC" Name="DMDTC" DataType="datetime" SASFieldName="DMDTC">
                <Description>
                    <TranslatedText xml:lang="en">Date/Time of Collection</TranslatedText>
                </Description>
                <def:Origin Type="__PLACEHOLDER__" Source="__PLACEHOLDER__"/>
            </ItemDef>
            <ItemDef OID="IT.SC.STUDYID" Name="STUDYID" DataType="text" SASFieldName="STUDYID" Length="__PLACEHOLDER__">
                <Description>
                    <TranslatedText xml:lang="en">Study Identifier</TranslatedText>
                </Description>
                <def:Origin Type="__PLACEHOLDER__" Source="__PLACEHOLDER__"/>
            </ItemDef>
            <ItemDef OID="IT.SC.DOMAIN" Name="DOMAIN" DataType="text" SASFieldName="DOMAIN" Length="__PLACEHOLDER__">
                <Description>
                    <TranslatedText xml:lang="en">Domain Abbreviation</TranslatedText>
                </Description>
                <def:Origin Type="__PLACEHOLDER__" Source="__PLACEHOLDER__"/>
            </ItemDef>
            <ItemDef OID="IT.SC.USUBJID" Name="USUBJID" DataType="text" SASFieldName="USUBJID" Length="__PLACEHOLDER__">
                <Description>
                    <TranslatedText xml:lang="en">Unique Subject Identifier</TranslatedText>
                </Description>
                <def:Origin Type="__PLACEHOLDER__" Source="__PLACEHOLDER__"/>
            </ItemDef>
            <ItemDef OID="IT.SC.SCSEQ" Name="SCSEQ" DataType="integer" SASFieldName="SCSEQ" Length="__PLACEHOLDER__">
                <Description>
                    <TranslatedText xml:lang="en">Sequence Number</TranslatedText>
                </Description>
                <def:Origin Type="__PLACEHOLDER__" Source="__PLACEHOLDER__"/>
            </ItemDef>
            <ItemDef OID="IT.SC.SCTESTCD" Name="SCTESTCD" DataType="text" SASFieldName="SCTESTCD"
                     Length="__PLACEHOLDER__">
                <Description>
                    <TranslatedText xml:lang="en">Subject Characteristic Short Name</TranslatedText>
                </Description>
                <CodeListRef CodeListOID="CL.SCTESTCD"/>
                <def:Origin Type="__PLACEHOLDER__" Source="__PLACEHOLDER__"/>
            </ItemDef>
            <ItemDef OID="IT.SC.SCTEST" Name="SCTEST" DataType="text" SASFieldName="SCTEST" Length="__PLACEHOLDER__">
                <Description>
                    <TranslatedText xml:lang="en">Subject Characteristic</TranslatedText>
                </Description>
                <CodeListRef CodeListOID="CL.SCTEST"/>
                <def:Origin Type="__PLACEHOLDER__" Source="__PLACEHOLDER__"/>
            </ItemDef>
            <ItemDef OID="IT.SC.SCORRES" Name="SCORRES" DataType="text" SASFieldName="SCORRES" Length="100">
                <Description>
                    <TranslatedText xml:lang="en">Result or Finding in Original Units</TranslatedText>
                </Description>
                <def:ValueListRef ValueListOID="VL.SC.SCORRES"/>
                <def:Origin Type="Collected" Source="Investigator">
                    <def:DocumentRef leafID="LF.acrf">
                        <def:PDFPageRef PageRefs="__PLACEHOLDER__" Type="PhysicalRef"/>
                    </def:DocumentRef>
                </def:Origin>
            </ItemDef>
            <ItemDef OID="IT.SC.SCORRESU" Name="SCORRESU" DataType="text" SASFieldName="SCORRESU"
                     Length="__PLACEHOLDER__">
                <Description>
                    <TranslatedText xml:lang="en">Original Units</TranslatedText>
                </Description>
                <CodeListRef CodeListOID="CL.UNIT"/>
                <def:ValueListRef ValueListOID="VL.SC.SCORRESU"/>
                <def:Origin Type="__PLACEHOLDER__" Source="__PLACEHOLDER__"/>
            </ItemDef>
            <ItemDef OID="IT.SC.SCSTRESC" Name="SCSTRESC" DataType="text" SASFieldName="SCSTRESC" Length="100">
                <Description>
                    <TranslatedText xml:lang="en">Character Result/Finding in Std Format</TranslatedText>
                </Description>
                <def:Origin Type="Assigned" Source="Sponsor"/>
            </ItemDef>
            <ItemDef OID="IT.SC.SCSTRESN" Name="SCSTRESN" DataType="text" SASFieldName="SCSTRESN" Length="100">
                <Description>
                    <TranslatedText xml:lang="en">Numeric Result/Finding in Standard Units</TranslatedText>
                </Description>
                <def:Origin Type="Assigned" Source="Sponsor"/>
            </ItemDef>
            <ItemDef OID="IT.SC.SCSTRESU" Name="SCSTRESU" DataType="text" SASFieldName="SCSTRESU"
                     Length="__PLACEHOLDER__">
                <Description>
                    <TranslatedText xml:lang="en">Standard Units</TranslatedText>
                </Description>
                <CodeListRef CodeListOID="CL.UNIT"/>
                <def:Origin Type="__PLACEHOLDER__" Source="__PLACEHOLDER__"/>
            </ItemDef>
            <ItemDef OID="IT.SC.SCDTC" Name="SCDTC" DataType="datetime" SASFieldName="SCDTC">
                <Description>
                    <TranslatedText xml:lang="en">Date/Time of Collection</TranslatedText>
                </Description>
                <def:Origin Type="__PLACEHOLDER__" Source="__PLACEHOLDER__"/>
            </ItemDef>
            <ItemDef OID="IT.SC.SCORRES.EDULEVEL" Name="SCORRES" DataType="float" SASFieldName="SCORRES" Length="4"
                     SignificantDigits="1" def:DisplayFormat="3.1">
                <def:Origin Type="Collected" Source="Investigator">
                    <def:DocumentRef leafID="LF.acrf">
                        <def:PDFPageRef PageRefs="__PLACEHOLDER__" Type="PhysicalRef"/>
                    </def:DocumentRef>
                </def:Origin>
            </ItemDef>
            <ItemDef OID="IT.SC.SCORRES.EDUYRNUM" Name="SCORRES" DataType="float" SASFieldName="SCORRES" Length="4"
                     SignificantDigits="1" def:DisplayFormat="3.1">
                <def:Origin Type="Collected" Source="Investigator">
                    <def:DocumentRef leafID="LF.acrf">
                        <def:PDFPageRef PageRefs="__PLACEHOLDER__" Type="PhysicalRef"/>
                    </def:DocumentRef>
                </def:Origin>
            </ItemDef>
            <ItemDef OID="IT.SC.SCORRESU.EDUYRNUM" Name="SCORRESU" DataType="text" SASFieldName="SCORRESU"
                     Length="__PLACEHOLDER__"/>
            <ItemDef OID="IT.MH.STUDYID" Name="STUDYID" DataType="text" SASFieldName="STUDYID" Length="__PLACEHOLDER__">
                <Description>
                    <TranslatedText xml:lang="en">Study Identifier</TranslatedText>
                </Description>
                <def:Origin Type="__PLACEHOLDER__" Source="__PLACEHOLDER__"/>
            </ItemDef>
            <ItemDef OID="IT.MH.DOMAIN" Name="DOMAIN" DataType="text" SASFieldName="DOMAIN" Length="__PLACEHOLDER__">
                <Description>
                    <TranslatedText xml:lang="en">Domain Abbreviation</TranslatedText>
                </Description>
                <def:Origin Type="__PLACEHOLDER__" Source="__PLACEHOLDER__"/>
            </ItemDef>
            <ItemDef OID="IT.MH.USUBJID" Name="USUBJID" DataType="text" SASFieldName="USUBJID" Length="__PLACEHOLDER__">
                <Description>
                    <TranslatedText xml:lang="en">Unique Subject Identifier</TranslatedText>
                </Description>
                <def:Origin Type="__PLACEHOLDER__" Source="__PLACEHOLDER__"/>
            </ItemDef>
            <ItemDef OID="IT.MH.MHSEQ" Name="MHSEQ" DataType="integer" SASFieldName="MHSEQ" Length="__PLACEHOLDER__">
                <Description>
                    <TranslatedText xml:lang="en">Sequence Number</TranslatedText>
                </Description>
                <def:Origin Type="__PLACEHOLDER__" Source="__PLACEHOLDER__"/>
            </ItemDef>
            <ItemDef OID="IT.MH.MHTERM" Name="MHTERM" DataType="text" SASFieldName="MHTERM" Length="200">
                <Description>
                    <TranslatedText xml:lang="en">Reported Term for the Medical History</TranslatedText>
                </Description>
                <def:Origin Type="Assigned" Source="Sponsor"/>
            </ItemDef>
            <ItemDef OID="IT.MH.MHDECOD" Name="MHDECOD" DataType="text" SASFieldName="MHDECOD" Length="200">
                <Description>
                    <TranslatedText xml:lang="en">Dictionary-Derived Term</TranslatedText>
                </Description>
                <def:Origin Type="Assigned" Source="Sponsor"/>
            </ItemDef>
            <ItemDef OID="IT.MH.MHPRESP" Name="MHPRESP" DataType="text" SASFieldName="MHPRESP" Length="1">
                <Description>
                    <TranslatedText xml:lang="en">Medical History Event Pre-Specified</TranslatedText>
                </Description>
                <CodeListRef CodeListOID="CL.NY"/>
                <def:Origin Type="Assigned" Source="Sponsor"/>
            </ItemDef>
            <ItemDef OID="IT.MH.MHOCCUR" Name="MHOCCUR" DataType="text" SASFieldName="MHOCCUR" Length="1">
                <Description>
                    <TranslatedText xml:lang="en">Medical History Occurrence</TranslatedText>
                </Description>
                <CodeListRef CodeListOID="CL.NY"/>
                <def:Origin Type="Collected" Source="Investigator">
                    <def:DocumentRef leafID="LF.acrf">
                        <def:PDFPageRef PageRefs="__PLACEHOLDER__" Type="PhysicalRef"/>
                    </def:DocumentRef>
                </def:Origin>
            </ItemDef>
            <ItemDef OID="IT.MH.MHENRF" Name="MHENRF" DataType="text" SASFieldName="MHENRF" Length="20">
                <Description>
                    <TranslatedText xml:lang="en">End Relative to Reference Period</TranslatedText>
                </Description>
                <CodeListRef CodeListOID="CL.STENRF"/>
                <def:Origin Type="Assigned" Source="Sponsor"/>
            </ItemDef>
            <ItemDef OID="IT.MH.MHENRTPT" Name="MHENRTPT" DataType="text" SASFieldName="MHENRTPT" Length="20">
                <Description>
                    <TranslatedText xml:lang="en">End Relative to Reference Time Point</TranslatedText>
                </Description>
                <CodeListRef CodeListOID="CL.STENRF"/>
                <def:Origin Type="Assigned" Source="Sponsor"/>
            </ItemDef>
            <ItemDef OID="IT.MH.MHENTPT" Name="MHENTPT" DataType="text" SASFieldName="MHENTPT" Length="20">
                <Description>
                    <TranslatedText xml:lang="en">End Reference Time Point</TranslatedText>
                </Description>
                <def:Origin Type="Assigned" Source="Sponsor"/>
            </ItemDef>
            <ItemDef OID="IT.SU.STUDYID" Name="STUDYID" DataType="text" SASFieldName="STUDYID" Length="__PLACEHOLDER__">
                <Description>
                    <TranslatedText xml:lang="en">Study Identifier</TranslatedText>
                </Description>
                <def:Origin Type="__PLACEHOLDER__" Source="__PLACEHOLDER__"/>
            </ItemDef>
            <ItemDef OID="IT.SU.DOMAIN" Name="DOMAIN" DataType="text" SASFieldName="DOMAIN" Length="__PLACEHOLDER__">
                <Description>
                    <TranslatedText xml:lang="en">Domain Abbreviation</TranslatedText>
                </Description>
                <def:Origin Type="__PLACEHOLDER__" Source="__PLACEHOLDER__"/>
            </ItemDef>
            <ItemDef OID="IT.SU.USUBJID" Name="USUBJID" DataType="text" SASFieldName="USUBJID" Length="__PLACEHOLDER__">
                <Description>
                    <TranslatedText xml:lang="en">Unique Subject Identifier</TranslatedText>
                </Description>
                <def:Origin Type="__PLACEHOLDER__" Source="__PLACEHOLDER__"/>
            </ItemDef>
            <ItemDef OID="IT.SU.SUSEQ" Name="SUSEQ" DataType="integer" SASFieldName="SUSEQ" Length="__PLACEHOLDER__">
                <Description>
                    <TranslatedText xml:lang="en">Sequence Number</TranslatedText>
                </Description>
