<?xml version='1.0' encoding='UTF-8'?>
<ODM FileOID="ODM.DEFINE21.f9f211b0-284c-4852-a530-ba704e76908d" AsOfDateTime="2026-04-12T23:44:56.988539+00:00"
     CreationDateTime="2026-04-12T23:44:56.988547+00:00" ODMVersion="1.3.2" FileType="Snapshot"
     Originator="360i Define-XML Team" SourceSystem="odmlib" SourceSystemVersion="0.2" def:Context="Other"
     xmlns="http://www.cdisc.org/ns/odm/v1.3" xmlns:xs="http://www.w3.org/2001/XMLSchema-instance"
     xmlns:xml="http://www.w3.org/XML/1998/namespace" xmlns:xlink="http://www.w3.org/1999/xlink"
     xmlns:def="http://www.cdisc.org/ns/def/v2.0">
    <Study OID="ODM.LZZT - NEW.Version1.Design1">
        <GlobalVariables>
            <StudyName>LZZT - NEW</StudyName>
            <StudyDescription>Safety and Efficacy of the Xanomeline Transdermal Therapeutic System (TTS) in Patients
                with Mild to Moderate Alzheimer's Disease
            </StudyDescription>
            <ProtocolName>LZZT - NEW</ProtocolName>
        </GlobalVariables>
        <MetaDataVersion OID="MDV.LZZT---NEW" Name="MDV LZZT - NEW" Description="Data Definitions for LZZT - NEW"
                         def:DefineVersion="2.1.0">
            <ItemGroupDef OID="IG.DS" Name="DS" Domain="DS" SASDatasetName="DS"
                          def:Structure="One record per disposition status or protocol milestone per subject"
                          IsReferenceData="No" Repeating="Yes" Purpose="Tabulation" def:StandardOID="STD.SDTMIG">
                <Description>
                    <TranslatedText xml:lang="en">Disposition</TranslatedText>
                </Description>
                <ItemRef ItemOID="IT.DS.STUDYID" Mandatory="Yes" OrderNumber="1" KeySequence="__PLACEHOLDER__"
                         Role="Identifier"/>
                <ItemRef ItemOID="IT.DS.DOMAIN" Mandatory="Yes" OrderNumber="2" Role="Identifier"/>
                <ItemRef ItemOID="IT.DS.USUBJID" Mandatory="Yes" OrderNumber="3" Role="Identifier"/>
                <ItemRef ItemOID="IT.DS.DSSEQ" Mandatory="Yes" OrderNumber="4" Role="Identifier"/>
                <ItemRef ItemOID="IT.DS.DSTERM" Mandatory="Yes" OrderNumber="5" Role="Topic"/>
                <ItemRef ItemOID="IT.DS.DSDECOD" Mandatory="Yes" OrderNumber="6" Role="Synonym Qualifier"/>
                <ItemRef ItemOID="IT.DS.DSCAT" Mandatory="No" OrderNumber="7" Role="Grouping Qualifier"/>
                <ItemRef ItemOID="IT.DS.DSSCAT" Mandatory="No" OrderNumber="8" Role="Grouping Qualifier"/>
                <ItemRef ItemOID="IT.DS.DSSTDTC" Mandatory="No" OrderNumber="9" Role="Timing"/>
                <ItemRef ItemOID="IT.DS.DSSTDY" Mandatory="No" OrderNumber="10" Role="Timing"/>
            </ItemGroupDef>
            <ItemGroupDef OID="IG.DM" Name="DM" Domain="DM" SASDatasetName="DM" def:Structure="One record per subject"
                          IsReferenceData="No" Repeating="No" Purpose="Tabulation" def:StandardOID="STD.SDTMIG">
                <Description>
                    <TranslatedText xml:lang="en">Demographics</TranslatedText>
                </Description>
                <ItemRef ItemOID="IT.DM.STUDYID" Mandatory="Yes" OrderNumber="1" KeySequence="__PLACEHOLDER__"
                         Role="Identifier"/>
                <ItemRef ItemOID="IT.DM.DOMAIN" Mandatory="Yes" OrderNumber="2" Role="Identifier"/>
                <ItemRef ItemOID="IT.DM.USUBJID" Mandatory="Yes" OrderNumber="3" Role="Identifier"/>
                <ItemRef ItemOID="IT.DM.SUBJID" Mandatory="Yes" OrderNumber="4" Role="Topic"/>
                <ItemRef ItemOID="IT.DM.RFSTDTC" Mandatory="No" OrderNumber="5" Role="Record Qualifier"/>
                <ItemRef ItemOID="IT.DM.RFENDTC" Mandatory="No" OrderNumber="6" Role="Record Qualifier"/>
                <ItemRef ItemOID="IT.DM.RFXSTDTC" Mandatory="No" OrderNumber="7" Role="Record Qualifier"/>
                <ItemRef ItemOID="IT.DM.RFXENDTC" Mandatory="No" OrderNumber="8" Role="Record Qualifier"/>
                <ItemRef ItemOID="IT.DM.RFICDTC" Mandatory="No" OrderNumber="9" Role="Record Qualifier"/>
                <ItemRef ItemOID="IT.DM.RFPENDTC" Mandatory="No" OrderNumber="10" Role="Record Qualifier"/>
                <ItemRef ItemOID="IT.DM.DTHDTC" Mandatory="No" OrderNumber="11" Role="Record Qualifier"/>
                <ItemRef ItemOID="IT.DM.DTHFL" Mandatory="No" OrderNumber="12" Role="Record Qualifier"/>
                <ItemRef ItemOID="IT.DM.SITEID" Mandatory="Yes" OrderNumber="13" Role="Record Qualifier"/>
                <ItemRef ItemOID="IT.DM.AGE" Mandatory="No" OrderNumber="14" Role="Record Qualifier"/>
                <ItemRef ItemOID="IT.DM.AGEU" Mandatory="No" OrderNumber="15" Role="Variable Qualifier"/>
                <ItemRef ItemOID="IT.DM.SEX" Mandatory="Yes" OrderNumber="16" Role="Record Qualifier"/>
                <ItemRef ItemOID="IT.DM.RACE" Mandatory="No" OrderNumber="17" Role="Record Qualifier"/>
                <ItemRef ItemOID="IT.DM.ETHNIC" Mandatory="No" OrderNumber="18" Role="Record Qualifier"/>
                <ItemRef ItemOID="IT.DM.ARMCD" Mandatory="No" OrderNumber="19" Role="Record Qualifier"/>
                <ItemRef ItemOID="IT.DM.ARM" Mandatory="No" OrderNumber="20" Role="Synonym Qualifier"/>
                <ItemRef ItemOID="IT.DM.ACTARMCD" Mandatory="No" OrderNumber="21" Role="Record Qualifier"/>
                <ItemRef ItemOID="IT.DM.ACTARM" Mandatory="No" OrderNumber="22" Role="Synonym Qualifier"/>
                <ItemRef ItemOID="IT.DM.ARMNRS" Mandatory="No" OrderNumber="23" Role="Record Qualifier"/>
                <ItemRef ItemOID="IT.DM.ACTARMUD" Mandatory="No" OrderNumber="24" Role="Record Qualifier"/>
                <ItemRef ItemOID="IT.DM.COUNTRY" Mandatory="Yes" OrderNumber="25" Role="Record Qualifier"/>
                <ItemRef ItemOID="IT.DM.DMDTC" Mandatory="No" OrderNumber="26" Role="Timing"/>
            </ItemGroupDef>
            <ItemGroupDef OID="IG.SC" Name="SC" Domain="SC" SASDatasetName="SC"
                          def:Structure="One record per characteristic per visit per subject." IsReferenceData="No"
                          Repeating="Yes" Purpose="Tabulation" def:StandardOID="STD.SDTMIG">
                <Description>
                    <TranslatedText xml:lang="en">Subject Characteristics</TranslatedText>
                </Description>
                <ItemRef ItemOID="IT.SC.STUDYID" Mandatory="Yes" OrderNumber="1" KeySequence="__PLACEHOLDER__"
                         Role="Identifier"/>
                <ItemRef ItemOID="IT.SC.DOMAIN" Mandatory="Yes" OrderNumber="2" Role="Identifier"/>
                <ItemRef ItemOID="IT.SC.USUBJID" Mandatory="Yes" OrderNumber="3" Role="Identifier"/>
                <ItemRef ItemOID="IT.SC.SCSEQ" Mandatory="Yes" OrderNumber="4" Role="Identifier"/>
                <ItemRef ItemOID="IT.SC.SCTESTCD" Mandatory="Yes" OrderNumber="5" Role="Topic"/>
                <ItemRef ItemOID="IT.SC.SCTEST" Mandatory="Yes" OrderNumber="6" Role="Synonym Qualifier"/>
                <ItemRef ItemOID="IT.SC.SCORRES" Mandatory="No" OrderNumber="7" Role="Result Qualifier"/>
                <ItemRef ItemOID="IT.SC.SCORRESU" Mandatory="No" OrderNumber="8" Role="Variable Qualifier"/>
                <ItemRef ItemOID="IT.SC.SCSTRESC" Mandatory="No" OrderNumber="9" Role="Result Qualifier"/>
                <ItemRef ItemOID="IT.SC.SCSTRESN" Mandatory="No" OrderNumber="10" Role="Result Qualifier"/>
                <ItemRef ItemOID="IT.SC.SCSTRESU" Mandatory="No" OrderNumber="11" Role="Variable Qualifier"/>
                <ItemRef ItemOID="IT.SC.SCDTC" Mandatory="No" OrderNumber="12" Role="Timing"/>
            </ItemGroupDef>
            <ItemGroupDef OID="IG.MH" Name="MH" Domain="MH" SASDatasetName="MH"
                          def:Structure="One record per medical history event per subject" IsReferenceData="No"
                          Repeating="Yes" Purpose="Tabulation" def:StandardOID="STD.SDTMIG">
                <Description>
                    <TranslatedText xml:lang="en">Medical History</TranslatedText>
                </Description>
                <ItemRef ItemOID="IT.MH.STUDYID" Mandatory="Yes" OrderNumber="1" KeySequence="__PLACEHOLDER__"
                         Role="Identifier"/>
                <ItemRef ItemOID="IT.MH.DOMAIN" Mandatory="Yes" OrderNumber="2" Role="Identifier"/>
                <ItemRef ItemOID="IT.MH.USUBJID" Mandatory="Yes" OrderNumber="3" Role="Identifier"/>
                <ItemRef ItemOID="IT.MH.MHSEQ" Mandatory="Yes" OrderNumber="4" Role="Identifier"/>
                <ItemRef ItemOID="IT.MH.MHTERM" Mandatory="Yes" OrderNumber="5" Role="Topic"/>
                <ItemRef ItemOID="IT.MH.MHDECOD" Mandatory="No" OrderNumber="6" Role="Synonym Qualifier"/>
                <ItemRef ItemOID="IT.MH.MHPRESP" Mandatory="No" OrderNumber="7" Role="Variable Qualifier"/>
                <ItemRef ItemOID="IT.MH.MHOCCUR" Mandatory="No" OrderNumber="8" Role="Record Qualifier"/>
                <ItemRef ItemOID="IT.MH.MHENRF" Mandatory="No" OrderNumber="9" Role="Timing"/>
                <ItemRef ItemOID="IT.MH.MHENRTPT" Mandatory="No" OrderNumber="10" Role="Timing"/>
                <ItemRef ItemOID="IT.MH.MHENTPT" Mandatory="No" OrderNumber="11" Role="Timing"/>
            </ItemGroupDef>
            <ItemGroupDef OID="IG.SU" Name="SU" Domain="SU" SASDatasetName="SU"
                          def:Structure="One record per substance type per reported occurrence per subject"
                          IsReferenceData="No" Repeating="Yes" Purpose="Tabulation" def:StandardOID="STD.SDTMIG">
                <Description>
                    <TranslatedText xml:lang="en">Substance Use</TranslatedText>
                </Description>
                <ItemRef ItemOID="IT.SU.STUDYID" Mandatory="Yes" OrderNumber="1" KeySequence="__PLACEHOLDER__"
                         Role="Identifier"/>
                <ItemRef ItemOID="IT.SU.DOMAIN" Mandatory="Yes" OrderNumber="2" Role="Identifier"/>
                <ItemRef ItemOID="IT.SU.USUBJID" Mandatory="Yes" OrderNumber="3" Role="Identifier"/>
                <ItemRef ItemOID="IT.SU.SUSEQ" Mandatory="Yes" OrderNumber="4" Role="Identifier"/>
                <ItemRef ItemOID="IT.SU.SUTRT" Mandatory="Yes" OrderNumber="5" Role="Topic"/>
                <ItemRef ItemOID="IT.SU.SUCAT" Mandatory="No" OrderNumber="6" Role="Grouping Qualifier"/>
                <ItemRef ItemOID="IT.SU.SUSCAT" Mandatory="No" OrderNumber="7" Role="Grouping Qualifier"/>
                <ItemRef ItemOID="IT.SU.SUPRESP" Mandatory="No" OrderNumber="8" Role="Variable Qualifier"/>
                <ItemRef ItemOID="IT.SU.SUOCCUR" Mandatory="No" OrderNumber="9" Role="Record Qualifier"/>
                <ItemRef ItemOID="IT.SU.SUDOSE" Mandatory="No" OrderNumber="10" Role="Record Qualifier"/>
                <ItemRef ItemOID="IT.SU.SUDOSTXT" Mandatory="No" OrderNumber="11" Role="Record Qualifier"/>
                <ItemRef ItemOID="IT.SU.SUDOSU" Mandatory="No" OrderNumber="12" Role="Variable Qualifier"/>
                <ItemRef ItemOID="IT.SU.SUDOSFRQ" Mandatory="No" OrderNumber="13" Role="Variable Qualifier"/>
                <ItemRef ItemOID="IT.SU.SUSTDTC" Mandatory="No" OrderNumber="14" Role="Timing"/>
                <ItemRef ItemOID="IT.SU.SUENDTC" Mandatory="No" OrderNumber="15" Role="Timing"/>
                <ItemRef ItemOID="IT.SU.SUDUR" Mandatory="No" OrderNumber="16" Role="Timing"/>
                <ItemRef ItemOID="IT.SU.SUSTRF" Mandatory="No" OrderNumber="17" Role="Timing"/>
                <ItemRef ItemOID="IT.SU.SUENRF" Mandatory="No" OrderNumber="18" Role="Timing"/>
                <ItemRef ItemOID="IT.SU.SUSTRTPT" Mandatory="No" OrderNumber="19" Role="Timing"/>
                <ItemRef ItemOID="IT.SU.SUSTTPT" Mandatory="No" OrderNumber="20" Role="Timing"/>
                <ItemRef ItemOID="IT.SU.SUENRTPT" Mandatory="No" OrderNumber="21" Role="Timing"/>
                <ItemRef ItemOID="IT.SU.SUENTPT" Mandatory="No" OrderNumber="22" Role="Timing"/>
            </ItemGroupDef>
            <ItemGroupDef OID="IG.PR" Name="PR" Domain="PR" SASDatasetName="PR"
                          def:Structure="One record per recorded procedure per occurrence per subject"
                          IsReferenceData="No" Repeating="Yes" Purpose="Tabulation" def:StandardOID="STD.SDTMIG">
                <Description>
                    <TranslatedText xml:lang="en">Procedures</TranslatedText>
                </Description>
                <ItemRef ItemOID="IT.PR.STUDYID" Mandatory="Yes" OrderNumber="1" KeySequence="__PLACEHOLDER__"
                         Role="Identifier"/>
                <ItemRef ItemOID="IT.PR.DOMAIN" Mandatory="Yes" OrderNumber="2" Role="Identifier"/>
                <ItemRef ItemOID="IT.PR.USUBJID" Mandatory="Yes" OrderNumber="3" Role="Identifier"/>
                <ItemRef ItemOID="IT.PR.PRSEQ" Mandatory="Yes" OrderNumber="4" Role="Identifier"/>
                <ItemRef ItemOID="IT.PR.PRTRT" Mandatory="Yes" OrderNumber="5" Role="Topic"/>
                <ItemRef ItemOID="IT.PR.PRDECOD" Mandatory="No" OrderNumber="6" Role="Synonym Qualifier"/>
                <ItemRef ItemOID="IT.PR.PRCAT" Mandatory="No" OrderNumber="7" Role="Grouping Qualifier"/>
                <ItemRef ItemOID="IT.PR.PRSCAT" Mandatory="No" OrderNumber="8" Role="Grouping Qualifier"/>
                <ItemRef ItemOID="IT.PR.PRPRESP" Mandatory="No" OrderNumber="9" Role="Variable Qualifier"/>
                <ItemRef ItemOID="IT.PR.PROCCUR" Mandatory="No" OrderNumber="10" Role="Record Qualifier"/>
                <ItemRef ItemOID="IT.PR.PRLOC" Mandatory="No" OrderNumber="11" Role="Record Qualifier"/>
                <ItemRef ItemOID="IT.PR.PRSTDTC" Mandatory="No" OrderNumber="12" Role="Timing"/>
                <ItemRef ItemOID="IT.PR.PRENDTC" Mandatory="No" OrderNumber="13" Role="Timing"/>
            </ItemGroupDef>
            <ItemGroupDef OID="IG.VS" Name="VS" Domain="VS" SASDatasetName="VS"
                          def:Structure="One record per vital sign measurement per time point per visit per subject"
                          IsReferenceData="No" Repeating="Yes" Purpose="Tabulation" def:StandardOID="STD.SDTMIG">
                <Description>
                    <TranslatedText xml:lang="en">Vital Signs</TranslatedText>
                </Description>
                <ItemRef ItemOID="IT.VS.STUDYID" Mandatory="Yes" OrderNumber="1" KeySequence="__PLACEHOLDER__"
                         Role="Identifier"/>
                <ItemRef ItemOID="IT.VS.DOMAIN" Mandatory="Yes" OrderNumber="2" Role="Identifier"/>
                <ItemRef ItemOID="IT.VS.USUBJID" Mandatory="Yes" OrderNumber="3" Role="Identifier"/>
                <ItemRef ItemOID="IT.VS.VSSEQ" Mandatory="Yes" OrderNumber="4" Role="Identifier"/>
                <ItemRef ItemOID="IT.VS.VSTESTCD" Mandatory="Yes" OrderNumber="5" Role="Topic"/>
                <ItemRef ItemOID="IT.VS.VSTEST" Mandatory="Yes" OrderNumber="6" Role="Synonym Qualifier"/>
                <ItemRef ItemOID="IT.VS.VSPOS" Mandatory="No" OrderNumber="7" Role="Record Qualifier"/>
                <ItemRef ItemOID="IT.VS.VSORRES" Mandatory="No" OrderNumber="8" Role="Result Qualifier"/>
                <ItemRef ItemOID="IT.VS.VSORRESU" Mandatory="No" OrderNumber="9" Role="Variable Qualifier"/>
                <ItemRef ItemOID="IT.VS.VSSTRESC" Mandatory="No" OrderNumber="10" Role="Result Qualifier"/>
                <ItemRef ItemOID="IT.VS.VSSTRESN" Mandatory="No" OrderNumber="11" Role="Result Qualifier"/>
                <ItemRef ItemOID="IT.VS.VSSTRESU" Mandatory="No" OrderNumber="12" Role="Variable Qualifier"/>
                <ItemRef ItemOID="IT.VS.VSLOC" Mandatory="No" OrderNumber="13" Role="Record Qualifier"/>
                <ItemRef ItemOID="IT.VS.VSLAT" Mandatory="No" OrderNumber="14" Role="Result Qualifier"/>
                <ItemRef ItemOID="IT.VS.VSLOBXFL" Mandatory="No" OrderNumber="15" Role="Record Qualifier"/>
                <ItemRef ItemOID="IT.VS.VISITNUM" Mandatory="No" OrderNumber="16" Role="Timing"/>
                <ItemRef ItemOID="IT.VS.VSDTC" Mandatory="No" OrderNumber="17" Role="Timing"/>
            </ItemGroupDef>
            <ItemGroupDef OID="IG.EG" Name="EG" Domain="EG" SASDatasetName="EG"
                          def:Structure="One record per ECG observation per replicate per time point or one record per ECG observation per beat per visit per subject"
                          IsReferenceData="No" Repeating="Yes" Purpose="Tabulation" def:StandardOID="STD.SDTMIG">
                <Description>
                    <TranslatedText xml:lang="en">ECG Test Results</TranslatedText>
                </Description>
                <ItemRef ItemOID="IT.EG.STUDYID" Mandatory="Yes" OrderNumber="1" KeySequence="__PLACEHOLDER__"
                         Role="Identifier"/>
                <ItemRef ItemOID="IT.EG.DOMAIN" Mandatory="Yes" OrderNumber="2" Role="Identifier"/>
                <ItemRef ItemOID="IT.EG.USUBJID" Mandatory="Yes" OrderNumber="3" Role="Identifier"/>
                <ItemRef ItemOID="IT.EG.EGSEQ" Mandatory="Yes" OrderNumber="4" Role="Identifier"/>
                <ItemRef ItemOID="IT.EG.EGTESTCD" Mandatory="Yes" OrderNumber="5" Role="Topic"/>
                <ItemRef ItemOID="IT.EG.EGTEST" Mandatory="Yes" OrderNumber="6" Role="Synonym Qualifier"/>
                <ItemRef ItemOID="IT.EG.EGCAT" Mandatory="No" OrderNumber="7" Role="Grouping Qualifier"/>
                <ItemRef ItemOID="IT.EG.EGPOS" Mandatory="No" OrderNumber="8" Role="Record Qualifier"/>
                <ItemRef ItemOID="IT.EG.EGORRES" Mandatory="No" OrderNumber="9" Role="Result Qualifier"/>
                <ItemRef ItemOID="IT.EG.EGORRESU" Mandatory="No" OrderNumber="10" Role="Variable Qualifier"/>
                <ItemRef ItemOID="IT.EG.EGSTRESC" Mandatory="No" OrderNumber="11" Role="Result Qualifier"/>
                <ItemRef ItemOID="IT.EG.EGSTRESN" Mandatory="No" OrderNumber="12" Role="Result Qualifier"/>
                <ItemRef ItemOID="IT.EG.EGSTRESU" Mandatory="No" OrderNumber="13" Role="Variable Qualifier"/>
                <ItemRef ItemOID="IT.EG.EGMETHOD" Mandatory="No" OrderNumber="14" Role="Record Qualifier"/>
                <ItemRef ItemOID="IT.EG.EGLOBXFL" Mandatory="No" OrderNumber="15" Role="Record Qualifier"/>
                <ItemRef ItemOID="IT.EG.EGEVAL" Mandatory="No" OrderNumber="16" Role="Record Qualifier"/>
                <ItemRef ItemOID="IT.EG.EGCLSIG" Mandatory="No" OrderNumber="17" Role="Record Qualifier"/>
                <ItemRef ItemOID="IT.EG.VISITNUM" Mandatory="No" OrderNumber="18" Role="Timing"/>
                <ItemRef ItemOID="IT.EG.EGDTC" Mandatory="No" OrderNumber="19" Role="Timing"/>
            </ItemGroupDef>
            <ItemGroupDef OID="IG.CM" Name="CM" Domain="CM" SASDatasetName="CM"
                          def:Structure="One record per recorded intervention occurrence or constant-dosing interval per subject"
                          IsReferenceData="No" Repeating="Yes" Purpose="Tabulation" def:StandardOID="STD.SDTMIG">
                <Description>
                    <TranslatedText xml:lang="en">Concomitant/Prior Medications</TranslatedText>
                </Description>
                <ItemRef ItemOID="IT.CM.STUDYID" Mandatory="Yes" OrderNumber="1" KeySequence="__PLACEHOLDER__"
                         Role="Identifier"/>
                <ItemRef ItemOID="IT.CM.DOMAIN" Mandatory="Yes" OrderNumber="2" Role="Identifier"/>
                <ItemRef ItemOID="IT.CM.USUBJID" Mandatory="Yes" OrderNumber="3" Role="Identifier"/>
                <ItemRef ItemOID="IT.CM.CMSEQ" Mandatory="Yes" OrderNumber="4" Role="Identifier"/>
                <ItemRef ItemOID="IT.CM.CMTRT" Mandatory="Yes" OrderNumber="5" Role="Topic"/>
                <ItemRef ItemOID="IT.CM.CMDECOD" Mandatory="No" OrderNumber="6" Role="Synonym Qualifier"/>
                <ItemRef ItemOID="IT.CM.CMCAT" Mandatory="No" OrderNumber="7" Role="Grouping Qualifier"/>
                <ItemRef ItemOID="IT.CM.CMSCAT" Mandatory="No" OrderNumber="8" Role="Grouping Qualifier"/>
                <ItemRef ItemOID="IT.CM.CMPRESP" Mandatory="No" OrderNumber="9" Role="Variable Qualifier"/>
                <ItemRef ItemOID="IT.CM.CMOCCUR" Mandatory="No" OrderNumber="10" Role="Record Qualifier"/>
                <ItemRef ItemOID="IT.CM.CMINDC" Mandatory="No" OrderNumber="11" Role="Record Qualifier"/>
                <ItemRef ItemOID="IT.CM.CMDOSE" Mandatory="No" OrderNumber="12" Role="Record Qualifier"/>
                <ItemRef ItemOID="IT.CM.CMDOSU" Mandatory="No" OrderNumber="13" Role="Variable Qualifier"/>
                <ItemRef ItemOID="IT.CM.CMDOSFRM" Mandatory="No" OrderNumber="14" Role="Variable Qualifier"/>
                <ItemRef ItemOID="IT.CM.CMROUTE" Mandatory="No" OrderNumber="15" Role="Variable Qualifier"/>
                <ItemRef ItemOID="IT.CM.CMSTDTC" Mandatory="No" OrderNumber="16" Role="Timing"/>
                <ItemRef ItemOID="IT.CM.CMENDTC" Mandatory="No" OrderNumber="17" Role="Timing"/>
            </ItemGroupDef>
            <ItemGroupDef OID="IG.LB" Name="LB" Domain="LB" SASDatasetName="LB"
                          def:Structure="One record per lab test per time point per visit per subject"
                          IsReferenceData="No" Repeating="Yes" Purpose="Tabulation" def:StandardOID="STD.SDTMIG">
                <Description>
                    <TranslatedText xml:lang="en">Laboratory Test Results</TranslatedText>
                </Description>
                <ItemRef ItemOID="IT.LB.STUDYID" Mandatory="Yes" OrderNumber="1" KeySequence="__PLACEHOLDER__"
                         Role="Identifier"/>
                <ItemRef ItemOID="IT.LB.DOMAIN" Mandatory="Yes" OrderNumber="2" Role="Identifier"/>
                <ItemRef ItemOID="IT.LB.USUBJID" Mandatory="Yes" OrderNumber="3" Role="Identifier"/>
                <ItemRef ItemOID="IT.LB.LBSEQ" Mandatory="Yes" OrderNumber="4" Role="Identifier"/>
                <ItemRef ItemOID="IT.LB.LBTESTCD" Mandatory="Yes" OrderNumber="5" Role="Topic"/>
                <ItemRef ItemOID="IT.LB.LBTEST" Mandatory="Yes" OrderNumber="6" Role="Synonym Qualifier"/>
                <ItemRef ItemOID="IT.LB.LBCAT" Mandatory="No" OrderNumber="7" Role="Grouping Qualifier"/>
                <ItemRef ItemOID="IT.LB.LBORRES" Mandatory="No" OrderNumber="8" Role="Result Qualifier"/>
                <ItemRef ItemOID="IT.LB.LBORRESU" Mandatory="No" OrderNumber="9" Role="Variable Qualifier"/>
                <ItemRef ItemOID="IT.LB.LBORNRLO" Mandatory="No" OrderNumber="10" Role="Variable Qualifier"/>
                <ItemRef ItemOID="IT.LB.LBORNRHI" Mandatory="No" OrderNumber="11" Role="Variable Qualifier"/>
                <ItemRef ItemOID="IT.LB.LBSTRESC" Mandatory="No" OrderNumber="12" Role="Result Qualifier"/>
                <ItemRef ItemOID="IT.LB.LBSTRESN" Mandatory="No" OrderNumber="13" Role="Result Qualifier"/>
                <ItemRef ItemOID="IT.LB.LBSTRESU" Mandatory="No" OrderNumber="14" Role="Variable Qualifier"/>
                <ItemRef ItemOID="IT.LB.LBSTNRLO" Mandatory="No" OrderNumber="15" Role="Variable Qualifier"/>
                <ItemRef ItemOID="IT.LB.LBSTNRHI" Mandatory="No" OrderNumber="16" Role="Variable Qualifier"/>
                <ItemRef ItemOID="IT.LB.LBNRIND" Mandatory="No" OrderNumber="17" Role="Variable Qualifier"/>
                <ItemRef ItemOID="IT.LB.LBSPEC" Mandatory="No" OrderNumber="18" Role="Record Qualifier"/>
                <ItemRef ItemOID="IT.LB.LBMETHOD" Mandatory="No" OrderNumber="19" Role="Record Qualifier"/>
                <ItemRef ItemOID="IT.LB.LBLOBXFL" Mandatory="No" OrderNumber="20" Role="Record Qualifier"/>
                <ItemRef ItemOID="IT.LB.LBFAST" Mandatory="No" OrderNumber="21" Role="Record Qualifier"/>
                <ItemRef ItemOID="IT.LB.VISITNUM" Mandatory="No" OrderNumber="22" Role="Timing"/>
                <ItemRef ItemOID="IT.LB.LBDTC" Mandatory="No" OrderNumber="23" Role="Timing"/>
            </ItemGroupDef>
            <ItemGroupDef OID="IG.MB" Name="MB" Domain="MB" SASDatasetName="MB"
                          def:Structure="One record per microbiology specimen finding per time point per visit per subject"
                          IsReferenceData="No" Repeating="Yes" Purpose="Tabulation" def:StandardOID="STD.SDTMIG">
                <Description>
                    <TranslatedText xml:lang="en">Microbiology Specimen</TranslatedText>
                </Description>
                <ItemRef ItemOID="IT.MB.STUDYID" Mandatory="Yes" OrderNumber="1" KeySequence="__PLACEHOLDER__"
                         Role="Identifier"/>
                <ItemRef ItemOID="IT.MB.DOMAIN" Mandatory="Yes" OrderNumber="2" Role="Identifier"/>
                <ItemRef ItemOID="IT.MB.USUBJID" Mandatory="Yes" OrderNumber="3" Role="Identifier"/>
                <ItemRef ItemOID="IT.MB.MBSEQ" Mandatory="Yes" OrderNumber="4" Role="Identifier"/>
                <ItemRef ItemOID="IT.MB.MBTESTCD" Mandatory="Yes" OrderNumber="5" Role="Topic"/>
                <ItemRef ItemOID="IT.MB.MBTEST" Mandatory="Yes" OrderNumber="6" Role="Synonym Qualifier"/>
                <ItemRef ItemOID="IT.MB.MBTSTDTL" Mandatory="No" OrderNumber="7" Role="Variable Qualifier"/>
                <ItemRef ItemOID="IT.MB.MBORRES" Mandatory="No" OrderNumber="8" Role="Result Qualifier"/>
                <ItemRef ItemOID="IT.MB.MBSTRESC" Mandatory="No" OrderNumber="9" Role="Result Qualifier"/>
                <ItemRef ItemOID="IT.MB.MBSPEC" Mandatory="No" OrderNumber="10" Role="Record Qualifier"/>
                <ItemRef ItemOID="IT.MB.MBMETHOD" Mandatory="No" OrderNumber="11" Role="Record Qualifier"/>
                <ItemRef ItemOID="IT.MB.VISITNUM" Mandatory="No" OrderNumber="12" Role="Timing"/>
                <ItemRef ItemOID="IT.MB.MBDTC" Mandatory="No" OrderNumber="13" Role="Timing"/>
            </ItemGroupDef>
            <ItemGroupDef OID="IG.EC" Name="EC" Domain="EC" SASDatasetName="EC"
                          def:Structure="One record per protocol-specified study treatment, collected-dosing interval, per subject, per mood"
                          IsReferenceData="No" Repeating="Yes" Purpose="Tabulation" def:StandardOID="STD.SDTMIG">
                <Description>
                    <TranslatedText xml:lang="en">Exposure as Collected</TranslatedText>
                </Description>
                <ItemRef ItemOID="IT.EC.STUDYID" Mandatory="Yes" OrderNumber="1" KeySequence="__PLACEHOLDER__"
                         Role="Identifier"/>
                <ItemRef ItemOID="IT.EC.DOMAIN" Mandatory="Yes" OrderNumber="2" Role="Identifier"/>
                <ItemRef ItemOID="IT.EC.USUBJID" Mandatory="Yes" OrderNumber="3" Role="Identifier"/>
                <ItemRef ItemOID="IT.EC.ECSEQ" Mandatory="Yes" OrderNumber="4" Role="Identifier"/>
                <ItemRef ItemOID="IT.EC.ECREFID" Mandatory="No" OrderNumber="5" Role="Identifier"/>
                <ItemRef ItemOID="IT.EC.ECTRT" Mandatory="Yes" OrderNumber="6" Role="Topic"/>
                <ItemRef ItemOID="IT.EC.ECDOSE" Mandatory="No" OrderNumber="7" Role="Record Qualifier"/>
                <ItemRef ItemOID="IT.EC.ECDOSTXT" Mandatory="No" OrderNumber="8" Role="Record Qualifier"/>
                <ItemRef ItemOID="IT.EC.ECDOSU" Mandatory="No" OrderNumber="9" Role="Variable Qualifier"/>
                <ItemRef ItemOID="IT.EC.ECDOSFRM" Mandatory="No" OrderNumber="10" Role="Variable Qualifier"/>
                <ItemRef ItemOID="IT.EC.ECDOSFRQ" Mandatory="No" OrderNumber="11" Role="Record Qualifier"/>
                <ItemRef ItemOID="IT.EC.ECDOSRGM" Mandatory="No" OrderNumber="12" Role="Record Qualifier"/>
                <ItemRef ItemOID="IT.EC.ECROUTE" Mandatory="No" OrderNumber="13" Role="Variable Qualifier"/>
                <ItemRef ItemOID="IT.EC.ECLOC" Mandatory="No" OrderNumber="14" Role="Record Qualifier"/>
                <ItemRef ItemOID="IT.EC.ECLAT" Mandatory="No" OrderNumber="15" Role="Variable Qualifier"/>
                <ItemRef ItemOID="IT.EC.ECDIR" Mandatory="No" OrderNumber="16" Role="Variable Qualifier"/>
                <ItemRef ItemOID="IT.EC.ECSTDTC" Mandatory="No" OrderNumber="17" Role="Timing"/>
                <ItemRef ItemOID="IT.EC.ECENDTC" Mandatory="No" OrderNumber="18" Role="Timing"/>
            </ItemGroupDef>
            <ItemGroupDef OID="IG.AE" Name="AE" Domain="AE" SASDatasetName="AE"
                          def:Structure="One record per adverse event per subject" IsReferenceData="No" Repeating="Yes"
                          Purpose="Tabulation" def:StandardOID="STD.SDTMIG">
                <Description>
                    <TranslatedText xml:lang="en">Adverse Events</TranslatedText>
                </Description>
                <ItemRef ItemOID="IT.AE.STUDYID" Mandatory="Yes" OrderNumber="1" KeySequence="__PLACEHOLDER__"
                         Role="Identifier"/>
                <ItemRef ItemOID="IT.AE.DOMAIN" Mandatory="Yes" OrderNumber="2" Role="Identifier"/>
                <ItemRef ItemOID="IT.AE.USUBJID" Mandatory="Yes" OrderNumber="3" Role="Identifier"/>
                <ItemRef ItemOID="IT.AE.AESEQ" Mandatory="Yes" OrderNumber="4" Role="Identifier"/>
                <ItemRef ItemOID="IT.AE.AETERM" Mandatory="Yes" OrderNumber="5" Role="Topic"/>
                <ItemRef ItemOID="IT.AE.AELLT" Mandatory="No" OrderNumber="6" Role="Variable Qualifier"/>
                <ItemRef ItemOID="IT.AE.AELLTCD" Mandatory="No" OrderNumber="7" Role="Variable Qualifier"/>
                <ItemRef ItemOID="IT.AE.AEDECOD" Mandatory="Yes" OrderNumber="8" Role="Synonym Qualifier"/>
                <ItemRef ItemOID="IT.AE.AEPTCD" Mandatory="No" OrderNumber="9" Role="Variable Qualifier"/>
                <ItemRef ItemOID="IT.AE.AEHLT" Mandatory="No" OrderNumber="10" Role="Variable Qualifier"/>
                <ItemRef ItemOID="IT.AE.AEHLTCD" Mandatory="No" OrderNumber="11" Role="Variable Qualifier"/>
                <ItemRef ItemOID="IT.AE.AEHLGT" Mandatory="No" OrderNumber="12" Role="Variable Qualifier"/>
                <ItemRef ItemOID="IT.AE.AEHLGTCD" Mandatory="No" OrderNumber="13" Role="Variable Qualifier"/>
                <ItemRef ItemOID="IT.AE.AECAT" Mandatory="No" OrderNumber="14" Role="Grouping Qualifier"/>
                <ItemRef ItemOID="IT.AE.AESCAT" Mandatory="No" OrderNumber="15" Role="Grouping Qualifier"/>
                <ItemRef ItemOID="IT.AE.AEPRESP" Mandatory="No" OrderNumber="16" Role="Variable Qualifier"/>
                <ItemRef ItemOID="IT.AE.AEBODSYS" Mandatory="No" OrderNumber="17" Role="Record Qualifier"/>
                <ItemRef ItemOID="IT.AE.AEBDSYCD" Mandatory="No" OrderNumber="18" Role="Variable Qualifier"/>
                <ItemRef ItemOID="IT.AE.AESOC" Mandatory="No" OrderNumber="19" Role="Variable Qualifier"/>
                <ItemRef ItemOID="IT.AE.AESOCCD" Mandatory="No" OrderNumber="20" Role="Variable Qualifier"/>
                <ItemRef ItemOID="IT.AE.AELOC" Mandatory="No" OrderNumber="21" Role="Record Qualifier"/>
                <ItemRef ItemOID="IT.AE.AESEV" Mandatory="No" OrderNumber="22" Role="Record Qualifier"/>
                <ItemRef ItemOID="IT.AE.AESER" Mandatory="No" OrderNumber="23" Role="Record Qualifier"/>
                <ItemRef ItemOID="IT.AE.AEACN" Mandatory="No" OrderNumber="24" Role="Record Qualifier"/>
                <ItemRef ItemOID="IT.AE.AEACNOTH" Mandatory="No" OrderNumber="25" Role="Record Qualifier"/>
                <ItemRef ItemOID="IT.AE.AEREL" Mandatory="No" OrderNumber="26" Role="Record Qualifier"/>
                <ItemRef ItemOID="IT.AE.AERELNST" Mandatory="No" OrderNumber="27" Role="Record Qualifier"/>
                <ItemRef ItemOID="IT.AE.AEPATT" Mandatory="No" OrderNumber="28" Role="Record Qualifier"/>
                <ItemRef ItemOID="IT.AE.AEOUT" Mandatory="No" OrderNumber="29" Role="Record Qualifier"/>
                <ItemRef ItemOID="IT.AE.AESCAN" Mandatory="No" OrderNumber="30" Role="Record Qualifier"/>
                <ItemRef ItemOID="IT.AE.AESCONG" Mandatory="No" OrderNumber="31" Role="Record Qualifier"/>
                <ItemRef ItemOID="IT.AE.AESDISAB" Mandatory="No" OrderNumber="32" Role="Record Qualifier"/>
                <ItemRef ItemOID="IT.AE.AESDTH" Mandatory="No" OrderNumber="33" Role="Record Qualifier"/>
                <ItemRef ItemOID="IT.AE.AESHOSP" Mandatory="No" OrderNumber="34" Role="Record Qualifier"/>
                <ItemRef ItemOID="IT.AE.AESLIFE" Mandatory="No" OrderNumber="35" Role="Record Qualifier"/>
                <ItemRef ItemOID="IT.AE.AESOD" Mandatory="No" OrderNumber="36" Role="Record Qualifier"/>
                <ItemRef ItemOID="IT.AE.AESMIE" Mandatory="No" OrderNumber="37" Role="Record Qualifier"/>
                <ItemRef ItemOID="IT.AE.AECONTRT" Mandatory="No" OrderNumber="38" Role="Record Qualifier"/>
                <ItemRef ItemOID="IT.AE.AETOXGR" Mandatory="No" OrderNumber="39" Role="Record Qualifier"/>
                <ItemRef ItemOID="IT.AE.AESTDTC" Mandatory="No" OrderNumber="40" Role="Timing"/>
                <ItemRef ItemOID="IT.AE.AEENDTC" Mandatory="No" OrderNumber="41" Role="Timing"/>
                <ItemRef ItemOID="IT.AE.AEENRF" Mandatory="No" OrderNumber="42" Role="Timing"/>
                <ItemRef ItemOID="IT.AE.AEENRTPT" Mandatory="No" OrderNumber="43" Role="Timing"/>
                <ItemRef ItemOID="IT.AE.AEENTPT" Mandatory="No" OrderNumber="44" Role="Timing"/>
            </ItemGroupDef>
            <ItemGroupDef OID="IG.TS" Name="TS" Domain="TS" SASDatasetName="TS"
                          def:Structure="One record per trial summary parameter value" IsReferenceData="Yes"
                          Repeating="No" Purpose="Tabulation" def:StandardOID="STD.SDTMIG">
                <Description>
                    <TranslatedText xml:lang="en">Trial Summary</TranslatedText>
                </Description>
                <ItemRef ItemOID="IT.TS.STUDYID" Mandatory="Yes" OrderNumber="1" KeySequence="__PLACEHOLDER__"
                         Role="Identifier"/>
                <ItemRef ItemOID="IT.TS.DOMAIN" Mandatory="Yes" OrderNumber="2" Role="Identifier"/>
                <ItemRef ItemOID="IT.TS.TSSEQ" Mandatory="Yes" OrderNumber="3" Role="Identifier"/>
                <ItemRef ItemOID="IT.TS.TSPARMCD" Mandatory="Yes" OrderNumber="4" Role="Topic"/>
                <ItemRef ItemOID="IT.TS.TSPARM" Mandatory="Yes" OrderNumber="5" Role="Synonym Qualifier"/>
                <ItemRef ItemOID="IT.TS.TSVAL" Mandatory="No" OrderNumber="6" Role="Result Qualifier"/>
                <ItemRef ItemOID="IT.TS.TSVALCD" Mandatory="No" OrderNumber="7" Role="Result Qualifier"/>
                <ItemRef ItemOID="IT.TS.TSVCDREF" Mandatory="No" OrderNumber="8" Role="Result Qualifier"/>
                <ItemRef ItemOID="IT.TS.TSVCDVER" Mandatory="No" OrderNumber="9" Role="Result Qualifier"/>
            </ItemGroupDef>
            <ItemGroupDef OID="IG.TA" Name="TA" Domain="TA" SASDatasetName="TA"
                          def:Structure="One record per planned Element per Arm" IsReferenceData="Yes" Repeating="No"
                          Purpose="Tabulation" def:StandardOID="STD.SDTMIG">
                <Description>
                    <TranslatedText xml:lang="en">Trial Arms</TranslatedText>
                </Description>
                <ItemRef ItemOID="IT.TA.STUDYID" Mandatory="Yes" OrderNumber="1" KeySequence="__PLACEHOLDER__"
                         Role="Identifier"/>
                <ItemRef ItemOID="IT.TA.DOMAIN" Mandatory="Yes" OrderNumber="2" Role="Identifier"/>
                <ItemRef ItemOID="IT.TA.ARMCD" Mandatory="Yes" OrderNumber="3" Role="Topic"/>
                <ItemRef ItemOID="IT.TA.ARM" Mandatory="Yes" OrderNumber="4" Role="Synonym Qualifier"/>
                <ItemRef ItemOID="IT.TA.TAETORD" Mandatory="Yes" OrderNumber="5" Role="Timing"/>
                <ItemRef ItemOID="IT.TA.ETCD" Mandatory="Yes" OrderNumber="6" Role="Record Qualifier"/>
                <ItemRef ItemOID="IT.TA.ELEMENT" Mandatory="No" OrderNumber="7" Role="Synonym Qualifier"/>
                <ItemRef ItemOID="IT.TA.TABRANCH" Mandatory="No" OrderNumber="8" Role="Rule"/>
                <ItemRef ItemOID="IT.TA.TATRANS" Mandatory="No" OrderNumber="9" Role="Rule"/>
                <ItemRef ItemOID="IT.TA.EPOCH" Mandatory="Yes" OrderNumber="10" Role="Timing"/>
            </ItemGroupDef>
            <ItemGroupDef OID="IG.TE" Name="TE" Domain="TE" SASDatasetName="TE"
                          def:Structure="One record per planned Element" IsReferenceData="Yes" Repeating="No"
                          Purpose="Tabulation" def:StandardOID="STD.SDTMIG">
                <Description>
                    <TranslatedText xml:lang="en">Trial Elements</TranslatedText>
                </Description>
                <ItemRef ItemOID="IT.TE.STUDYID" Mandatory="Yes" OrderNumber="1" KeySequence="__PLACEHOLDER__"
                         Role="Identifier"/>
                <ItemRef ItemOID="IT.TE.DOMAIN" Mandatory="Yes" OrderNumber="2" Role="Identifier"/>
                <ItemRef ItemOID="IT.TE.ETCD" Mandatory="Yes" OrderNumber="3" Role="Topic"/>
                <ItemRef ItemOID="IT.TE.ELEMENT" Mandatory="Yes" OrderNumber="4" Role="Synonym Qualifier"/>
                <ItemRef ItemOID="IT.TE.TESTRL" Mandatory="Yes" OrderNumber="5" Role="Rule"/>
            </ItemGroupDef>
            <ItemGroupDef OID="IG.TI" Name="TI" Domain="TI" SASDatasetName="TI"
                          def:Structure="One record per I/E criterion" IsReferenceData="Yes" Repeating="No"
                          Purpose="Tabulation" def:StandardOID="STD.SDTMIG">
                <Description>
                    <TranslatedText xml:lang="en">Trial Inclusion/Exclusion Criteria</TranslatedText>
                </Description>
                <ItemRef ItemOID="IT.TI.STUDYID" Mandatory="Yes" OrderNumber="1" KeySequence="__PLACEHOLDER__"
                         Role="Identifier"/>
                <ItemRef ItemOID="IT.TI.DOMAIN" Mandatory="Yes" OrderNumber="2" Role="Identifier"/>
                <ItemRef ItemOID="IT.TI.IETESTCD" Mandatory="Yes" OrderNumber="3" Role="Topic"/>
                <ItemRef ItemOID="IT.TI.IETEST" Mandatory="Yes" OrderNumber="4" Role="Synonym Qualifier"/>
                <ItemRef ItemOID="IT.TI.IECAT" Mandatory="Yes" OrderNumber="5" Role="Grouping Qualifier"/>
            </ItemGroupDef>
            <ItemGroupDef OID="IG.TV" Name="TV" Domain="TV" SASDatasetName="TV"
                          def:Structure="One record per planned Visit per Arm" IsReferenceData="Yes" Repeating="No"
                          Purpose="Tabulation" def:StandardOID="STD.SDTMIG">
                <Description>
                    <TranslatedText xml:lang="en">Trial Visits</TranslatedText>
                </Description>
                <ItemRef ItemOID="IT.TV.STUDYID" Mandatory="Yes" OrderNumber="1" KeySequence="__PLACEHOLDER__"
                         Role="Identifier"/>
                <ItemRef ItemOID="IT.TV.DOMAIN" Mandatory="Yes" OrderNumber="2" Role="Identifier"/>
                <ItemRef ItemOID="IT.TV.VISITNUM" Mandatory="Yes" OrderNumber="3" Role="Topic"/>
                <ItemRef ItemOID="IT.TV.VISIT" Mandatory="Yes" OrderNumber="4" Role="Synonym Qualifier"/>
                <ItemRef ItemOID="IT.TV.VISITDY" Mandatory="No" OrderNumber="5" Role="Timing"/>
                <ItemRef ItemOID="IT.TV.ARMCD" Mandatory="No" OrderNumber="6" Role="Record Qualifier"/>
                <ItemRef ItemOID="IT.TV.ARM" Mandatory="No" OrderNumber="7" Role="Synonym Qualifier"/>
                <ItemRef ItemOID="IT.TV.TVSTRL" Mandatory="Yes" OrderNumber="8" Role="Rule"/>
                <ItemRef ItemOID="IT.TV.TVENRL" Mandatory="No" OrderNumber="9" Role="Rule"/>
            </ItemGroupDef>
            <ItemGroupDef OID="IG.SV" Name="SV" Domain="SV" SASDatasetName="SV"
                          def:Structure="One record per actual or planned visit per subject" IsReferenceData="No"
                          Repeating="Yes" Purpose="Tabulation" def:StandardOID="STD.SDTMIG">
                <Description>
                    <TranslatedText xml:lang="en">Subject Visits</TranslatedText>
                </Description>
                <ItemRef ItemOID="IT.SV.STUDYID" Mandatory="Yes" OrderNumber="1" KeySequence="__PLACEHOLDER__"
                         Role="Identifier"/>
                <ItemRef ItemOID="IT.SV.DOMAIN" Mandatory="Yes" OrderNumber="2" Role="Identifier"/>
                <ItemRef ItemOID="IT.SV.USUBJID" Mandatory="Yes" OrderNumber="3" Role="Identifier"/>
                <ItemRef ItemOID="IT.SV.VISITNUM" Mandatory="Yes" OrderNumber="4" Role="Topic"/>
                <ItemRef ItemOID="IT.SV.VISIT" Mandatory="No" OrderNumber="5" Role="Synonym Qualifier"/>
                <ItemRef ItemOID="IT.SV.SVPRESP" Mandatory="No" OrderNumber="6" Role="Variable Qualifier"/>
                <ItemRef ItemOID="IT.SV.SVOCCUR" Mandatory="No" OrderNumber="7" Role="Record Qualifier"/>
                <ItemRef ItemOID="IT.SV.SVCNTMOD" Mandatory="No" OrderNumber="8" Role="Record Qualifier"/>
                <ItemRef ItemOID="IT.SV.SVSTDTC" Mandatory="No" OrderNumber="9" Role="Timing"/>
                <ItemRef ItemOID="IT.SV.SVENDTC" Mandatory="No" OrderNumber="10" Role="Timing"/>
            </ItemGroupDef>
            <ItemGroupDef OID="IG.IE" Name="IE" Domain="IE" SASDatasetName="IE"
                          def:Structure="One record per inclusion/exclusion criterion not met per subject"
                          IsReferenceData="No" Repeating="Yes" Purpose="Tabulation" def:StandardOID="STD.SDTMIG">
                <Description>
                    <TranslatedText xml:lang="en">Inclusion/Exclusion Criteria Not Met</TranslatedText>
                </Description>
                <ItemRef ItemOID="IT.IE.STUDYID" Mandatory="Yes" OrderNumber="1" KeySequence="__PLACEHOLDER__"
                         Role="Identifier"/>
                <ItemRef ItemOID="IT.IE.DOMAIN" Mandatory="Yes" OrderNumber="2" Role="Identifier"/>
                <ItemRef ItemOID="IT.IE.USUBJID" Mandatory="Yes" OrderNumber="3" Role="Identifier"/>
                <ItemRef ItemOID="IT.IE.IESEQ" Mandatory="Yes" OrderNumber="4" Role="Identifier"/>
                <ItemRef ItemOID="IT.IE.IETESTCD" Mandatory="Yes" OrderNumber="5" Role="Topic"/>
                <ItemRef ItemOID="IT.IE.IETEST" Mandatory="Yes" OrderNumber="6" Role="Synonym Qualifier"/>
                <ItemRef ItemOID="IT.IE.IECAT" Mandatory="Yes" OrderNumber="7" Role="Grouping Qualifier"/>
                <ItemRef ItemOID="IT.IE.IEORRES" Mandatory="Yes" OrderNumber="8" Role="Result Qualifier"/>
                <ItemRef ItemOID="IT.IE.IESTRESC" Mandatory="Yes" OrderNumber="9" Role="Result Qualifier"/>
            </ItemGroupDef>
            <ItemGroupDef OID="IG.SE" Name="SE" Domain="SE" SASDatasetName="SE"
                          def:Structure="One record per actual Element per subject" IsReferenceData="No" Repeating="Yes"
                          Purpose="Tabulation" def:StandardOID="STD.SDTMIG">
                <Description>
                    <TranslatedText xml:lang="en">Subject Elements</TranslatedText>
                </Description>
                <ItemRef ItemOID="IT.SE.STUDYID" Mandatory="Yes" OrderNumber="1" KeySequence="__PLACEHOLDER__"
                         Role="Identifier"/>
                <ItemRef ItemOID="IT.SE.DOMAIN" Mandatory="Yes" OrderNumber="2" Role="Identifier"/>
                <ItemRef ItemOID="IT.SE.USUBJID" Mandatory="Yes" OrderNumber="3" Role="Identifier"/>
                <ItemRef ItemOID="IT.SE.SESEQ" Mandatory="Yes" OrderNumber="4" Role="Identifier"/>
                <ItemRef ItemOID="IT.SE.ETCD" Mandatory="Yes" OrderNumber="5" Role="Topic"/>
                <ItemRef ItemOID="IT.SE.ELEMENT" Mandatory="No" OrderNumber="6" Role="Synonym Qualifier"/>
                <ItemRef ItemOID="IT.SE.EPOCH" Mandatory="No" OrderNumber="7" Role="Timing"/>
                <ItemRef ItemOID="IT.SE.SESTDTC" Mandatory="Yes" OrderNumber="8" Role="Timing"/>
                <ItemRef ItemOID="IT.SE.SEENDTC" Mandatory="No" OrderNumber="9" Role="Timing"/>
            </ItemGroupDef>
            <ItemDef OID="IT.DS.STUDYID" Name="STUDYID" DataType="text" SASFieldName="STUDYID" Length="__PLACEHOLDER__">
                <Description>
                    <TranslatedText xml:lang="en">Study Identifier</TranslatedText>
                </Description>
            </ItemDef>
            <ItemDef OID="IT.DS.DOMAIN" Name="DOMAIN" DataType="text" SASFieldName="DOMAIN" Length="__PLACEHOLDER__">
                <Description>
                    <TranslatedText xml:lang="en">Domain Abbreviation</TranslatedText>
                </Description>
            </ItemDef>
            <ItemDef OID="IT.DS.USUBJID" Name="USUBJID" DataType="text" SASFieldName="USUBJID" Length="__PLACEHOLDER__">
                <Description>
                    <TranslatedText xml:lang="en">Unique Subject Identifier</TranslatedText>
                </Description>
            </ItemDef>
            <ItemDef OID="IT.DS.DSSEQ" Name="DSSEQ" DataType="integer" SASFieldName="DSSEQ" Length="__PLACEHOLDER__">
                <Description>
                    <TranslatedText xml:lang="en">Sequence Number</TranslatedText>
                </Description>
            </ItemDef>
            <ItemDef OID="IT.DS.DSTERM" Name="DSTERM" DataType="text" SASFieldName="DSTERM" Length="200">
                <Description>
                    <TranslatedText xml:lang="en">Reported Term for the Disposition Event</TranslatedText>
                </Description>
            </ItemDef>
            <ItemDef OID="IT.DS.DSDECOD" Name="DSDECOD" DataType="text" SASFieldName="DSDECOD" Length="200">
                <Description>
                    <TranslatedText xml:lang="en">Standardized Disposition Term</TranslatedText>
                </Description>
                <CodeListRef CodeListOID="CL.NCOMPLT"/>
            </ItemDef>
            <ItemDef OID="IT.DS.DSCAT" Name="DSCAT" DataType="text" SASFieldName="DSCAT" Length="200">
                <Description>
                    <TranslatedText xml:lang="en">Category for Disposition Event</TranslatedText>
                </Description>
                <CodeListRef CodeListOID="CL.DSCAT"/>
            </ItemDef>
            <ItemDef OID="IT.DS.DSSCAT" Name="DSSCAT" DataType="text" SASFieldName="DSSCAT" Length="200">
                <Description>
                    <TranslatedText xml:lang="en">Subcategory for Disposition Event</TranslatedText>
                </Description>
                <CodeListRef CodeListOID="CL.DSSCAT"/>
            </ItemDef>
            <ItemDef OID="IT.DS.DSSTDTC" Name="DSSTDTC" DataType="datetime" SASFieldName="DSSTDTC">
                <Description>
                    <TranslatedText xml:lang="en">Start Date/Time of Disposition Event</TranslatedText>
                </Description>
            </ItemDef>
            <ItemDef OID="IT.DS.DSSTDY" Name="DSSTDY" DataType="integer" SASFieldName="DSSTDY" Length="__PLACEHOLDER__">
                <Description>
                    <TranslatedText xml:lang="en">Study Day of Start of Disposition Event</TranslatedText>
                </Description>
            </ItemDef>
            <ItemDef OID="IT.DM.STUDYID" Name="STUDYID" DataType="text" SASFieldName="STUDYID" Length="__PLACEHOLDER__">
                <Description>
                    <TranslatedText xml:lang="en">Study Identifier</TranslatedText>
                </Description>
            </ItemDef>
            <ItemDef OID="IT.DM.DOMAIN" Name="DOMAIN" DataType="text" SASFieldName="DOMAIN" Length="__PLACEHOLDER__">
                <Description>
                    <TranslatedText xml:lang="en">Domain Abbreviation</TranslatedText>
                </Description>
            </ItemDef>
            <ItemDef OID="IT.DM.USUBJID" Name="USUBJID" DataType="text" SASFieldName="USUBJID" Length="__PLACEHOLDER__">
                <Description>
                    <TranslatedText xml:lang="en">Unique Subject Identifier</TranslatedText>
                </Description>
            </ItemDef>
            <ItemDef OID="IT.DM.SUBJID" Name="SUBJID" DataType="text" SASFieldName="SUBJID" Length="__PLACEHOLDER__">
                <Description>
                    <TranslatedText xml:lang="en">Subject Identifier for the Study</TranslatedText>
                </Description>
            </ItemDef>
            <ItemDef OID="IT.DM.RFSTDTC" Name="RFSTDTC" DataType="datetime" SASFieldName="RFSTDTC">
                <Description>
                    <TranslatedText xml:lang="en">Subject Reference Start Date/Time</TranslatedText>
                </Description>
            </ItemDef>
            <ItemDef OID="IT.DM.RFENDTC" Name="RFENDTC" DataType="datetime" SASFieldName="RFENDTC">
                <Description>
                    <TranslatedText xml:lang="en">Subject Reference End Date/Time</TranslatedText>
                </Description>
            </ItemDef>
            <ItemDef OID="IT.DM.RFXSTDTC" Name="RFXSTDTC" DataType="datetime" SASFieldName="RFXSTDTC">
                <Description>
                    <TranslatedText xml:lang="en">Date/Time of First Study Treatment</TranslatedText>
                </Description>
            </ItemDef>
            <ItemDef OID="IT.DM.RFXENDTC" Name="RFXENDTC" DataType="datetime" SASFieldName="RFXENDTC">
                <Description>
                    <TranslatedText xml:lang="en">Date/Time of Last Study Treatment</TranslatedText>
                </Description>
            </ItemDef>
            <ItemDef OID="IT.DM.RFICDTC" Name="RFICDTC" DataType="datetime" SASFieldName="RFICDTC">
                <Description>
                    <TranslatedText xml:lang="en">Date/Time of Informed Consent</TranslatedText>
                </Description>
            </ItemDef>
            <ItemDef OID="IT.DM.RFPENDTC" Name="RFPENDTC" DataType="datetime" SASFieldName="RFPENDTC">
                <Description>
                    <TranslatedText xml:lang="en">Date/Time of End of Participation</TranslatedText>
                </Description>
            </ItemDef>
            <ItemDef OID="IT.DM.DTHDTC" Name="DTHDTC" DataType="datetime" SASFieldName="DTHDTC">
                <Description>
                    <TranslatedText xml:lang="en">Date/Time of Death</TranslatedText>
                </Description>
            </ItemDef>
            <ItemDef OID="IT.DM.DTHFL" Name="DTHFL" DataType="text" SASFieldName="DTHFL" Length="__PLACEHOLDER__">
                <Description>
                    <TranslatedText xml:lang="en">Subject Death Flag</TranslatedText>
                </Description>
                <CodeListRef CodeListOID="CL.NY"/>
            </ItemDef>
            <ItemDef OID="IT.DM.SITEID" Name="SITEID" DataType="text" SASFieldName="SITEID" Length="__PLACEHOLDER__">
                <Description>
                    <TranslatedText xml:lang="en">Study Site Identifier</TranslatedText>
                </Description>
            </ItemDef>
            <ItemDef OID="IT.DM.AGE" Name="AGE" DataType="float" SASFieldName="AGE" Length="6" SignificantDigits="2"
                     def:DisplayFormat="3.2">
                <Description>
                    <TranslatedText xml:lang="en">Age</TranslatedText>
                </Description>
            </ItemDef>
            <ItemDef OID="IT.DM.AGEU" Name="AGEU" DataType="text" SASFieldName="AGEU" Length="20">
                <Description>
                    <TranslatedText xml:lang="en">Age Units</TranslatedText>
                </Description>
                <CodeListRef CodeListOID="CL.AGEU"/>
            </ItemDef>
            <ItemDef OID="IT.DM.SEX" Name="SEX" DataType="text" SASFieldName="SEX" Length="100">
                <Description>
                    <TranslatedText xml:lang="en">Sex</TranslatedText>
                </Description>
                <CodeListRef CodeListOID="CL.SEX"/>
            </ItemDef>
            <ItemDef OID="IT.DM.RACE" Name="RACE" DataType="text" SASFieldName="RACE" Length="100">
                <Description>
                    <TranslatedText xml:lang="en">Race</TranslatedText>
                </Description>
                <CodeListRef CodeListOID="CL.RACE"/>
            </ItemDef>
            <ItemDef OID="IT.DM.ETHNIC" Name="ETHNIC" DataType="text" SASFieldName="ETHNIC" Length="100">
                <Description>
                    <TranslatedText xml:lang="en">Ethnicity</TranslatedText>
                </Description>
                <CodeListRef CodeListOID="CL.ETHNIC"/>
            </ItemDef>
            <ItemDef OID="IT.DM.ARMCD" Name="ARMCD" DataType="text" SASFieldName="ARMCD" Length="__PLACEHOLDER__">
                <Description>
                    <TranslatedText xml:lang="en">Planned Arm Code</TranslatedText>
                </Description>
            </ItemDef>
            <ItemDef OID="IT.DM.ARM" Name="ARM" DataType="text" SASFieldName="ARM" Length="__PLACEHOLDER__">
                <Description>
                    <TranslatedText xml:lang="en">Description of Planned Arm</TranslatedText>
                </Description>
            </ItemDef>
            <ItemDef OID="IT.DM.ACTARMCD" Name="ACTARMCD" DataType="text" SASFieldName="ACTARMCD"
                     Length="__PLACEHOLDER__">
                <Description>
                    <TranslatedText xml:lang="en">Actual Arm Code</TranslatedText>
                </Description>
            </ItemDef>
            <ItemDef OID="IT.DM.ACTARM" Name="ACTARM" DataType="text" SASFieldName="ACTARM" Length="__PLACEHOLDER__">
                <Description>
                    <TranslatedText xml:lang="en">Description of Actual Arm</TranslatedText>
                </Description>
            </ItemDef>
            <ItemDef OID="IT.DM.ARMNRS" Name="ARMNRS" DataType="text" SASFieldName="ARMNRS" Length="__PLACEHOLDER__">
                <Description>
                    <TranslatedText xml:lang="en">Reason Arm and/or Actual Arm is Null</TranslatedText>
                </Description>
                <CodeListRef CodeListOID="CL.ARMNULRS"/>
            </ItemDef>
            <ItemDef OID="IT.DM.ACTARMUD" Name="ACTARMUD" DataType="text" SASFieldName="ACTARMUD"
                     Length="__PLACEHOLDER__">
                <Description>
                    <TranslatedText xml:lang="en">Description of Unplanned Actual Arm</TranslatedText>
                </Description>
            </ItemDef>
            <ItemDef OID="IT.DM.COUNTRY" Name="COUNTRY" DataType="text" SASFieldName="COUNTRY" Length="__PLACEHOLDER__">
                <Description>
                    <TranslatedText xml:lang="en">Country</TranslatedText>
                </Description>
            </ItemDef>
            <ItemDef OID="IT.DM.DMDTC" Name="DMDTC" DataType="datetime" SASFieldName="DMDTC">
                <Description>
                    <TranslatedText xml:lang="en">Date/Time of Collection</TranslatedText>
                </Description>
            </ItemDef>
            <ItemDef OID="IT.SC.STUDYID" Name="STUDYID" DataType="text" SASFieldName="STUDYID" Length="__PLACEHOLDER__">
                <Description>
                    <TranslatedText xml:lang="en">Study Identifier</TranslatedText>
                </Description>
            </ItemDef>
            <ItemDef OID="IT.SC.DOMAIN" Name="DOMAIN" DataType="text" SASFieldName="DOMAIN" Length="__PLACEHOLDER__">
                <Description>
                    <TranslatedText xml:lang="en">Domain Abbreviation</TranslatedText>
                </Description>
            </ItemDef>
            <ItemDef OID="IT.SC.USUBJID" Name="USUBJID" DataType="text" SASFieldName="USUBJID" Length="__PLACEHOLDER__">
                <Description>
                    <TranslatedText xml:lang="en">Unique Subject Identifier</TranslatedText>
                </Description>
            </ItemDef>
            <ItemDef OID="IT.SC.SCSEQ" Name="SCSEQ" DataType="integer" SASFieldName="SCSEQ" Length="__PLACEHOLDER__">
                <Description>
                    <TranslatedText xml:lang="en">Sequence Number</TranslatedText>
                </Description>
            </ItemDef>
            <ItemDef OID="IT.SC.SCTESTCD" Name="SCTESTCD" DataType="text" SASFieldName="SCTESTCD"
                     Length="__PLACEHOLDER__">
                <Description>
                    <TranslatedText xml:lang="en">Subject Characteristic Short Name</TranslatedText>
                </Description>
                <CodeListRef CodeListOID="CL.SCTESTCD"/>
            </ItemDef>
            <ItemDef OID="IT.SC.SCTEST" Name="SCTEST" DataType="text" SASFieldName="SCTEST" Length="__PLACEHOLDER__">
                <Description>
                    <TranslatedText xml:lang="en">Subject Characteristic</TranslatedText>
                </Description>
                <CodeListRef CodeListOID="CL.SCTEST"/>
            </ItemDef>
            <ItemDef OID="IT.SC.SCORRES" Name="SCORRES" DataType="text" SASFieldName="SCORRES" Length="100">
                <Description>
                    <TranslatedText xml:lang="en">Result or Finding in Original Units</TranslatedText>
                </Description>
            </ItemDef>
            <ItemDef OID="IT.SC.SCORRESU" Name="SCORRESU" DataType="text" SASFieldName="SCORRESU"
                     Length="__PLACEHOLDER__">
                <Description>
                    <TranslatedText xml:lang="en">Original Units</TranslatedText>
                </Description>
                <CodeListRef CodeListOID="CL.UNIT"/>
            </ItemDef>
            <ItemDef OID="IT.SC.SCSTRESC" Name="SCSTRESC" DataType="text" SASFieldName="SCSTRESC" Length="100">
                <Description>
                    <TranslatedText xml:lang="en">Character Result/Finding in Std Format</TranslatedText>
                </Description>
            </ItemDef>
            <ItemDef OID="IT.SC.SCSTRESN" Name="SCSTRESN" DataType="text" SASFieldName="SCSTRESN" Length="100">
                <Description>
                    <TranslatedText xml:lang="en">Numeric Result/Finding in Standard Units</TranslatedText>
                </Description>
            </ItemDef>
            <ItemDef OID="IT.SC.SCSTRESU" Name="SCSTRESU" DataType="text" SASFieldName="SCSTRESU"
                     Length="__PLACEHOLDER__">
                <Description>
                    <TranslatedText xml:lang="en">Standard Units</TranslatedText>
                </Description>
                <CodeListRef CodeListOID="CL.UNIT"/>
            </ItemDef>
            <ItemDef OID="IT.SC.SCDTC" Name="SCDTC" DataType="datetime" SASFieldName="SCDTC">
                <Description>
                    <TranslatedText xml:lang="en">Date/Time of Collection</TranslatedText>
                </Description>
            </ItemDef>
            <ItemDef OID="IT.SC.SCORRES.EDULEVEL" Name="SCORRES" DataType="float" SASFieldName="SCORRES" Length="4"
                     SignificantDigits="1" def:DisplayFormat="3.1"/>
            <ItemDef OID="IT.SC.SCORRES.EDUYRNUM" Name="SCORRES" DataType="float" SASFieldName="SCORRES" Length="4"
                     SignificantDigits="1" def:DisplayFormat="3.1"/>
            <ItemDef OID="IT.SC.SCORRESU.EDUYRNUM" Name="SCORRESU" DataType="text" SASFieldName="SCORRESU"
                     Length="__PLACEHOLDER__"/>
            <ItemDef OID="IT.MH.STUDYID" Name="STUDYID" DataType="text" SASFieldName="STUDYID" Length="__PLACEHOLDER__">
                <Description>
                    <TranslatedText xml:lang="en">Study Identifier</TranslatedText>
                </Description>
            </ItemDef>
            <ItemDef OID="IT.MH.DOMAIN" Name="DOMAIN" DataType="text" SASFieldName="DOMAIN" Length="__PLACEHOLDER__">
                <Description>
                    <TranslatedText xml:lang="en">Domain Abbreviation</TranslatedText>
                </Description>
            </ItemDef>
            <ItemDef OID="IT.MH.USUBJID" Name="USUBJID" DataType="text" SASFieldName="USUBJID" Length="__PLACEHOLDER__">
                <Description>
                    <TranslatedText xml:lang="en">Unique Subject Identifier</TranslatedText>
                </Description>
            </ItemDef>
            <ItemDef OID="IT.MH.MHSEQ" Name="MHSEQ" DataType="integer" SASFieldName="MHSEQ" Length="__PLACEHOLDER__">
                <Description>
                    <TranslatedText xml:lang="en">Sequence Number</TranslatedText>
                </Description>
            </ItemDef>
            <ItemDef OID="IT.MH.MHTERM" Name="MHTERM" DataType="text" SASFieldName="MHTERM" Length="200">
                <Description>
                    <TranslatedText xml:lang="en">Reported Term for the Medical History</TranslatedText>
                </Description>
            </ItemDef>
            <ItemDef OID="IT.MH.MHDECOD" Name="MHDECOD" DataType="text" SASFieldName="MHDECOD" Length="200">
                <Description>
                    <TranslatedText xml:lang="en">Dictionary-Derived Term</TranslatedText>
                </Description>
            </ItemDef>
            <ItemDef OID="IT.MH.MHPRESP" Name="MHPRESP" DataType="text" SASFieldName="MHPRESP" Length="1">
                <Description>
                    <TranslatedText xml:lang="en">Medical History Event Pre-Specified</TranslatedText>
                </Description>
                <CodeListRef CodeListOID="CL.NY"/>
            </ItemDef>
            <ItemDef OID="IT.MH.MHOCCUR" Name="MHOCCUR" DataType="text" SASFieldName="MHOCCUR" Length="1">
                <Description>
                    <TranslatedText xml:lang="en">Medical History Occurrence</TranslatedText>
                </Description>
                <CodeListRef CodeListOID="CL.NY"/>
            </ItemDef>
            <ItemDef OID="IT.MH.MHENRF" Name="MHENRF" DataType="text" SASFieldName="MHENRF" Length="20">
                <Description>
                    <TranslatedText xml:lang="en">End Relative to Reference Period</TranslatedText>
                </Description>
                <CodeListRef CodeListOID="CL.STENRF"/>
            </ItemDef>
            <ItemDef OID="IT.MH.MHENRTPT" Name="MHENRTPT" DataType="text" SASFieldName="MHENRTPT" Length="20">
                <Description>
                    <TranslatedText xml:lang="en">End Relative to Reference Time Point</TranslatedText>
                </Description>
                <CodeListRef CodeListOID="CL.STENRF"/>
            </ItemDef>
            <ItemDef OID="IT.MH.MHENTPT" Name="MHENTPT" DataType="text" SASFieldName="MHENTPT" Length="20">
                <Description>
                    <TranslatedText xml:lang="en">End Reference Time Point</TranslatedText>
                </Description>
            </ItemDef>
            <ItemDef OID="IT.SU.STUDYID" Name="STUDYID" DataType="text" SASFieldName="STUDYID" Length="__PLACEHOLDER__">
                <Description>
                    <TranslatedText xml:lang="en">Study Identifier</TranslatedText>
                </Description>
            </ItemDef>
            <ItemDef OID="IT.SU.DOMAIN" Name="DOMAIN" DataType="text" SASFieldName="DOMAIN" Length="__PLACEHOLDER__">
                <Description>
                    <TranslatedText xml:lang="en">Domain Abbreviation</TranslatedText>
                </Description>
            </ItemDef>
            <ItemDef OID="IT.SU.USUBJID" Name="USUBJID" DataType="text" SASFieldName="USUBJID" Length="__PLACEHOLDER__">
                <Description>
                    <TranslatedText xml:lang="en">Unique Subject Identifier</TranslatedText>
                </Description>
            </ItemDef>
            <ItemDef OID="IT.SU.SUSEQ" Name="SUSEQ" DataType="integer" SASFieldName="SUSEQ" Length="__PLACEHOLDER__">
                <Description>
                    <TranslatedText xml:lang="en">Sequence Number</TranslatedText>
                </Description>
            </ItemDef>
            <ItemDef OID="IT.SU.SUTRT" Name="SUTRT" DataType="text" SASFieldName="SUTRT" Length="200">
                <Description>
                    <TranslatedText xml:lang="en">Reported Name of Substance</TranslatedText>
                </Description>
            </ItemDef>
            <ItemDef OID="IT.SU.SUCAT" Name="SUCAT" DataType="text" SASFieldName="SUCAT" Length="200">
                <Description>
                    <TranslatedText xml:lang="en">Category for Substance Use</TranslatedText>
                </Description>
            </ItemDef>
            <ItemDef OID="IT.SU.SUSCAT" Name="SUSCAT" DataType="text" SASFieldName="SUSCAT" Length="200">
                <Description>
                    <TranslatedText xml:lang="en">Subcategory for Substance Use</TranslatedText>
                </Description>
            </ItemDef>
            <ItemDef OID="IT.SU.SUPRESP" Name="SUPRESP" DataType="text" SASFieldName="SUPRESP" Length="1">
                <Description>
                    <TranslatedText xml:lang="en">SU Pre-Specified</TranslatedText>
                </Description>
                <CodeListRef CodeListOID="CL.NY"/>
            </ItemDef>
            <ItemDef OID="IT.SU.SUOCCUR" Name="SUOCCUR" DataType="text" SASFieldName="SUOCCUR" Length="1">
                <Description>
                    <TranslatedText xml:lang="en">SU Occurrence</TranslatedText>
                </Description>
                <CodeListRef CodeListOID="CL.NY"/>
            </ItemDef>
            <ItemDef OID="IT.SU.SUDOSE" Name="SUDOSE" DataType="float" SASFieldName="SUDOSE" Length="12"
                     SignificantDigits="4" def:DisplayFormat="12.4">
                <Description>
                    <TranslatedText xml:lang="en">Substance Use Consumption</TranslatedText>
                </Description>
            </ItemDef>
            <ItemDef OID="IT.SU.SUDOSTXT" Name="SUDOSTXT" DataType="text" SASFieldName="SUDOSTXT" Length="40">
                <Description>
                    <TranslatedText xml:lang="en">Substance Use Consumption Text</TranslatedText>
                </Description>
            </ItemDef>
            <ItemDef OID="IT.SU.SUDOSU" Name="SUDOSU" DataType="text" SASFieldName="SUDOSU" Length="40">
                <Description>
                    <TranslatedText xml:lang="en">Consumption Units</TranslatedText>
                </Description>
                <CodeListRef CodeListOID="CL.UNIT"/>
            </ItemDef>
            <ItemDef OID="IT.SU.SUDOSFRQ" Name="SUDOSFRQ" DataType="text" SASFieldName="SUDOSFRQ" Length="40">
                <Description>
                    <TranslatedText xml:lang="en">Use Frequency Per Interval</TranslatedText>
                </Description>
                <CodeListRef CodeListOID="CL.FREQ"/>
            </ItemDef>
            <ItemDef OID="IT.SU.SUSTDTC" Name="SUSTDTC" DataType="datetime" SASFieldName="SUSTDTC">
                <Description>
                    <TranslatedText xml:lang="en">Start Date/Time of Substance Use</TranslatedText>
                </Description>
            </ItemDef>
            <ItemDef OID="IT.SU.SUENDTC" Name="SUENDTC" DataType="datetime" SASFieldName="SUENDTC">
                <Description>
                    <TranslatedText xml:lang="en">End Date/Time of Substance Use</TranslatedText>
                </Description>
            </ItemDef>
            <ItemDef OID="IT.SU.SUDUR" Name="SUDUR" DataType="durationDatetime" SASFieldName="SUDUR">
                <Description>
                    <TranslatedText xml:lang="en">Duration of Substance Use</TranslatedText>
                </Description>
            </ItemDef>
            <ItemDef OID="IT.SU.SUSTRF" Name="SUSTRF" DataType="text" SASFieldName="SUSTRF" Length="20">
                <Description>
                    <TranslatedText xml:lang="en">Start Relative to Reference Period</TranslatedText>
                </Description>
                <CodeListRef CodeListOID="CL.STENRF"/>
            </ItemDef>
            <ItemDef OID="IT.SU.SUENRF" Name="SUENRF" DataType="text" SASFieldName="SUENRF" Length="20">
                <Description>
                    <TranslatedText xml:lang="en">End Relative to Reference Period</TranslatedText>
                </Description>
                <CodeListRef CodeListOID="CL.STENRF"/>
            </ItemDef>
            <ItemDef OID="IT.SU.SUSTRTPT" Name="SUSTRTPT" DataType="text" SASFieldName="SUSTRTPT" Length="20">
                <Description>
                    <TranslatedText xml:lang="en">Start Relative to Reference Time Point</TranslatedText>
                </Description>
                <CodeListRef CodeListOID="CL.STENRF"/>
            </ItemDef>
            <ItemDef OID="IT.SU.SUSTTPT" Name="SUSTTPT" DataType="text" SASFieldName="SUSTTPT" Length="20">
                <Description>
                    <TranslatedText xml:lang="en">Start Reference Time Point</TranslatedText>
                </Description>
            </ItemDef>
            <ItemDef OID="IT.SU.SUENRTPT" Name="SUENRTPT" DataType="text" SASFieldName="SUENRTPT" Length="20">
                <Description>
                    <TranslatedText xml:lang="en">End Relative to Reference Time Point</TranslatedText>
                </Description>
                <CodeListRef CodeListOID="CL.STENRF"/>
            </ItemDef>
            <ItemDef OID="IT.SU.SUENTPT" Name="SUENTPT" DataType="text" SASFieldName="SUENTPT" Length="20">
                <Description>
                    <TranslatedText xml:lang="en">End Reference Time Point</TranslatedText>
                </Description>
            </ItemDef>
            <ItemDef OID="IT.PR.STUDYID" Name="STUDYID" DataType="text" SASFieldName="STUDYID" Length="__PLACEHOLDER__">
                <Description>
                    <TranslatedText xml:lang="en">Study Identifier</TranslatedText>
                </Description>
            </ItemDef>
            <ItemDef OID="IT.PR.DOMAIN" Name="DOMAIN" DataType="text" SASFieldName="DOMAIN" Length="__PLACEHOLDER__">
                <Description>
                    <TranslatedText xml:lang="en">Domain Abbreviation</TranslatedText>
                </Description>
            </ItemDef>
            <ItemDef OID="IT.PR.USUBJID" Name="USUBJID" DataType="text" SASFieldName="USUBJID" Length="__PLACEHOLDER__">
                <Description>
                    <TranslatedText xml:lang="en">Unique Subject Identifier</TranslatedText>
                </Description>
            </ItemDef>
            <ItemDef OID="IT.PR.PRSEQ" Name="PRSEQ" DataType="integer" SASFieldName="PRSEQ" Length="__PLACEHOLDER__">
                <Description>
                    <TranslatedText xml:lang="en">Sequence Number</TranslatedText>
                </Description>
            </ItemDef>
            <ItemDef OID="IT.PR.PRTRT" Name="PRTRT" DataType="text" SASFieldName="PRTRT" Length="200">
                <Description>
                    <TranslatedText xml:lang="en">Reported Name of Procedure</TranslatedText>
                </Description>
            </ItemDef>
            <ItemDef OID="IT.PR.PRDECOD" Name="PRDECOD" DataType="text" SASFieldName="PRDECOD" Length="200">
                <Description>
                    <TranslatedText xml:lang="en">Standardized Procedure Name</TranslatedText>
                </Description>
                <CodeListRef CodeListOID="CL.PROCEDUR"/>
            </ItemDef>
            <ItemDef OID="IT.PR.PRCAT" Name="PRCAT" DataType="text" SASFieldName="PRCAT" Length="200">
                <Description>
                    <TranslatedText xml:lang="en">Category</TranslatedText>
                </Description>
            </ItemDef>
            <ItemDef OID="IT.PR.PRSCAT" Name="PRSCAT" DataType="text" SASFieldName="PRSCAT" Length="200">
                <Description>
                    <TranslatedText xml:lang="en">Subcategory</TranslatedText>
                </Description>
            </ItemDef>
            <ItemDef OID="IT.PR.PRPRESP" Name="PRPRESP" DataType="text" SASFieldName="PRPRESP" Length="1">
                <Description>
                    <TranslatedText xml:lang="en">Pre-specified</TranslatedText>
                </Description>
                <CodeListRef CodeListOID="CL.NY"/>
            </ItemDef>
            <ItemDef OID="IT.PR.PROCCUR" Name="PROCCUR" DataType="text" SASFieldName="PROCCUR" Length="1">
                <Description>
                    <TranslatedText xml:lang="en">Occurrence</TranslatedText>
                </Description>
                <CodeListRef CodeListOID="CL.NY"/>
            </ItemDef>
            <ItemDef OID="IT.PR.PRLOC" Name="PRLOC" DataType="text" SASFieldName="PRLOC" Length="200">
                <Description>
                    <TranslatedText xml:lang="en">Location of Procedure</TranslatedText>
                </Description>
                <CodeListRef CodeListOID="CL.LOC"/>
            </ItemDef>
            <ItemDef OID="IT.PR.PRSTDTC" Name="PRSTDTC" DataType="datetime" SASFieldName="PRSTDTC">
                <Description>
                    <TranslatedText xml:lang="en">Start Date/Time of Procedure</TranslatedText>
                </Description>
            </ItemDef>
            <ItemDef OID="IT.PR.PRENDTC" Name="PRENDTC" DataType="datetime" SASFieldName="PRENDTC">
                <Description>
                    <TranslatedText xml:lang="en">End Date/Time of Procedure</TranslatedText>
                </Description>
            </ItemDef>
            <ItemDef OID="IT.VS.STUDYID" Name="STUDYID" DataType="text" SASFieldName="STUDYID" Length="__PLACEHOLDER__">
                <Description>
                    <TranslatedText xml:lang="en">Study Identifier</TranslatedText>
                </Description>
            </ItemDef>
            <ItemDef OID="IT.VS.DOMAIN" Name="DOMAIN" DataType="text" SASFieldName="DOMAIN" Length="__PLACEHOLDER__">
                <Description>
                    <TranslatedText xml:lang="en">Domain Abbreviation</TranslatedText>
                </Description>
            </ItemDef>
            <ItemDef OID="IT.VS.USUBJID" Name="USUBJID" DataType="text" SASFieldName="USUBJID" Length="__PLACEHOLDER__">
                <Description>
                    <TranslatedText xml:lang="en">Unique Subject Identifier</TranslatedText>
                </Description>
            </ItemDef>
            <ItemDef OID="IT.VS.VSSEQ" Name="VSSEQ" DataType="integer" SASFieldName="VSSEQ" Length="__PLACEHOLDER__">
                <Description>
                    <TranslatedText xml:lang="en">Sequence Number</TranslatedText>
                </Description>
            </ItemDef>
            <ItemDef OID="IT.VS.VSTESTCD" Name="VSTESTCD" DataType="text" SASFieldName="VSTESTCD"
                     Length="__PLACEHOLDER__">
                <Description>
                    <TranslatedText xml:lang="en">Vital Signs Test Short Name</TranslatedText>
                </Description>
                <CodeListRef CodeListOID="CL.VSTESTCD"/>
            </ItemDef>
            <ItemDef OID="IT.VS.VSTEST" Name="VSTEST" DataType="text" SASFieldName="VSTEST" Length="__PLACEHOLDER__">
                <Description>
                    <TranslatedText xml:lang="en">Vital Signs Test Name</TranslatedText>
                </Description>
                <CodeListRef CodeListOID="CL.VSTEST"/>
            </ItemDef>
            <ItemDef OID="IT.VS.VSPOS" Name="VSPOS" DataType="text" SASFieldName="VSPOS" Length="__PLACEHOLDER__">
                <Description>
                    <TranslatedText xml:lang="en">Vital Signs Position of Subject</TranslatedText>
                </Description>
                <CodeListRef CodeListOID="CL.POSITION"/>
            </ItemDef>
            <ItemDef OID="IT.VS.VSORRES" Name="VSORRES" DataType="float" SASFieldName="VSORRES" Length="8"
                     SignificantDigits="3" def:DisplayFormat="8.3">
                <Description>
                    <TranslatedText xml:lang="en">Result or Finding in Original Units</TranslatedText>
                </Description>
            </ItemDef>
            <ItemDef OID="IT.VS.VSORRESU" Name="VSORRESU" DataType="text" SASFieldName="VSORRESU"
                     Length="__PLACEHOLDER__">
                <Description>
                    <TranslatedText xml:lang="en">Original Units</TranslatedText>
                </Description>
                <CodeListRef CodeListOID="CL.VSRESU"/>
            </ItemDef>
            <ItemDef OID="IT.VS.VSSTRESC" Name="VSSTRESC" DataType="float" SASFieldName="VSSTRESC" Length="8"
                     SignificantDigits="3" def:DisplayFormat="8.3">
                <Description>
                    <TranslatedText xml:lang="en">Character Result/Finding in Std Format</TranslatedText>
                </Description>
            </ItemDef>
            <ItemDef OID="IT.VS.VSSTRESN" Name="VSSTRESN" DataType="float" SASFieldName="VSSTRESN" Length="8"
                     SignificantDigits="3" def:DisplayFormat="8.3">
                <Description>
                    <TranslatedText xml:lang="en">Numeric Result/Finding in Standard Units</TranslatedText>
                </Description>
            </ItemDef>
            <ItemDef OID="IT.VS.VSSTRESU" Name="VSSTRESU" DataType="text" SASFieldName="VSSTRESU"
                     Length="__PLACEHOLDER__">
                <Description>
                    <TranslatedText xml:lang="en">Standard Units</TranslatedText>
                </Description>
                <CodeListRef CodeListOID="CL.VSRESU"/>
            </ItemDef>
            <ItemDef OID="IT.VS.VSLOC" Name="VSLOC" DataType="text" SASFieldName="VSLOC" Length="__PLACEHOLDER__">
                <Description>
                    <TranslatedText xml:lang="en">Location of Vital Signs Measurement</TranslatedText>
                </Description>
                <CodeListRef CodeListOID="CL.LOC"/>
            </ItemDef>
            <ItemDef OID="IT.VS.VSLAT" Name="VSLAT" DataType="text" SASFieldName="VSLAT" Length="__PLACEHOLDER__">
                <Description>
                    <TranslatedText xml:lang="en">Laterality</TranslatedText>
                </Description>
                <CodeListRef CodeListOID="CL.LAT"/>
            </ItemDef>
            <ItemDef OID="IT.VS.VSLOBXFL" Name="VSLOBXFL" DataType="text" SASFieldName="VSLOBXFL"
                     Length="__PLACEHOLDER__">
                <Description>
                    <TranslatedText xml:lang="en">Last Observation Before Exposure Flag</TranslatedText>
                </Description>
                <CodeListRef CodeListOID="CL.NY"/>
            </ItemDef>
            <ItemDef OID="IT.VS.VISITNUM" Name="VISITNUM" DataType="integer" SASFieldName="VISITNUM"
                     Length="__PLACEHOLDER__">
                <Description>
                    <TranslatedText xml:lang="en">Visit Number</TranslatedText>
                </Description>
            </ItemDef>
            <ItemDef OID="IT.VS.VSDTC" Name="VSDTC" DataType="datetime" SASFieldName="VSDTC">
                <Description>
                    <TranslatedText xml:lang="en">Date/Time of Measurements</TranslatedText>
                </Description>
            </ItemDef>
            <ItemDef OID="IT.VS.VSORRES.TEMP" Name="VSORRES" DataType="float" SASFieldName="VSORRES" Length="8"
                     SignificantDigits="3" def:DisplayFormat="8.3"/>
            <ItemDef OID="IT.VS.VSORRES.WEIGHT" Name="VSORRES" DataType="float" SASFieldName="VSORRES" Length="8"
                     SignificantDigits="3" def:DisplayFormat="8.3"/>
            <ItemDef OID="IT.VS.VSORRES.HEIGHT" Name="VSORRES" DataType="float" SASFieldName="VSORRES" Length="8"
                     SignificantDigits="3" def:DisplayFormat="8.3"/>
            <ItemDef OID="IT.VS.VSORRES.PULSE" Name="VSORRES" DataType="integer" SASFieldName="VSORRES" Length="3"/>
            <ItemDef OID="IT.VS.VSORRES.RESP" Name="VSORRES" DataType="integer" SASFieldName="VSORRES" Length="3"/>
            <ItemDef OID="IT.VS.VSORRES.BMI" Name="VSORRES" DataType="float" SASFieldName="VSORRES" Length="8"
                     def:DisplayFormat="8.3"/>
            <ItemDef OID="IT.VS.VSORRES.SYSBP" Name="VSORRES" DataType="integer" SASFieldName="VSORRES" Length="3"/>
            <ItemDef OID="IT.VS.VSORRES.DIABP" Name="VSORRES" DataType="integer" SASFieldName="VSORRES" Length="3"/>
            <ItemDef OID="IT.VS.VSORRES.HR" Name="VSORRES" DataType="integer" SASFieldName="VSORRES" Length="3"/>
            <ItemDef OID="IT.VS.VSORRESU.TEMP" Name="VSORRESU" DataType="text" SASFieldName="VSORRESU"
                     Length="__PLACEHOLDER__"/>
            <ItemDef OID="IT.VS.VSORRESU.WEIGHT" Name="VSORRESU" DataType="text" SASFieldName="VSORRESU"
                     Length="__PLACEHOLDER__"/>
            <ItemDef OID="IT.VS.VSORRESU.HEIGHT" Name="VSORRESU" DataType="text" SASFieldName="VSORRESU"
                     Length="__PLACEHOLDER__"/>
            <ItemDef OID="IT.VS.VSORRESU.PULSE" Name="VSORRESU" DataType="text" SASFieldName="VSORRESU"
                     Length="__PLACEHOLDER__"/>
            <ItemDef OID="IT.VS.VSORRESU.RESP" Name="VSORRESU" DataType="text" SASFieldName="VSORRESU"
                     Length="__PLACEHOLDER__"/>
            <ItemDef OID="IT.VS.VSORRESU.BMI" Name="VSORRESU" DataType="text" SASFieldName="VSORRESU"
                     Length="__PLACEHOLDER__"/>
            <ItemDef OID="IT.VS.VSORRESU.SYSBP" Name="VSORRESU" DataType="text" SASFieldName="VSORRESU"
                     Length="__PLACEHOLDER__"/>
            <ItemDef OID="IT.VS.VSORRESU.DIABP" Name="VSORRESU" DataType="text" SASFieldName="VSORRESU"
                     Length="__PLACEHOLDER__"/>
            <ItemDef OID="IT.VS.VSORRESU.HR" Name="VSORRESU" DataType="text" SASFieldName="VSORRESU"
                     Length="__PLACEHOLDER__"/>
            <ItemDef OID="IT.EG.STUDYID" Name="STUDYID" DataType="text" SASFieldName="STUDYID" Length="__PLACEHOLDER__">
                <Description>
                    <TranslatedText xml:lang="en">Study Identifier</TranslatedText>
                </Description>
            </ItemDef>
            <ItemDef OID="IT.EG.DOMAIN" Name="DOMAIN" DataType="text" SASFieldName="DOMAIN" Length="__PLACEHOLDER__">
                <Description>
                    <TranslatedText xml:lang="en">Domain Abbreviation</TranslatedText>
                </Description>
            </ItemDef>
            <ItemDef OID="IT.EG.USUBJID" Name="USUBJID" DataType="text" SASFieldName="USUBJID" Length="__PLACEHOLDER__">
                <Description>
                    <TranslatedText xml:lang="en">Unique Subject Identifier</TranslatedText>
                </Description>
            </ItemDef>
            <ItemDef OID="IT.EG.EGSEQ" Name="EGSEQ" DataType="integer" SASFieldName="EGSEQ" Length="__PLACEHOLDER__">
                <Description>
                    <TranslatedText xml:lang="en">Sequence Number</TranslatedText>
                </Description>
            </ItemDef>
            <ItemDef OID="IT.EG.EGTESTCD" Name="EGTESTCD" DataType="text" SASFieldName="EGTESTCD"
                     Length="__PLACEHOLDER__">
                <Description>
                    <TranslatedText xml:lang="en">ECG Test or Examination Short Name</TranslatedText>
                </Description>
                <CodeListRef CodeListOID="CL.EGTESTCD"/>
            </ItemDef>
            <ItemDef OID="IT.EG.EGTEST" Name="EGTEST" DataType="text" SASFieldName="EGTEST" Length="__PLACEHOLDER__">
                <Description>
                    <TranslatedText xml:lang="en">ECG Test or Examination Name</TranslatedText>
                </Description>
                <CodeListRef CodeListOID="CL.EGTEST"/>
            </ItemDef>
            <ItemDef OID="IT.EG.EGCAT" Name="EGCAT" DataType="text" SASFieldName="EGCAT" Length="__PLACEHOLDER__">
                <Description>
                    <TranslatedText xml:lang="en">Category for ECG</TranslatedText>
                </Description>
            </ItemDef>
            <ItemDef OID="IT.EG.EGPOS" Name="EGPOS" DataType="text" SASFieldName="EGPOS" Length="__PLACEHOLDER__">
                <Description>
                    <TranslatedText xml:lang="en">ECG Position of Subject</TranslatedText>
                </Description>
                <CodeListRef CodeListOID="CL.POSITION"/>
            </ItemDef>
            <ItemDef OID="IT.EG.EGORRES" Name="EGORRES" DataType="text" SASFieldName="EGORRES" Length="20">
                <Description>
                    <TranslatedText xml:lang="en">Result or Finding in Original Units</TranslatedText>
                </Description>
            </ItemDef>
            <ItemDef OID="IT.EG.EGORRESU" Name="EGORRESU" DataType="text" SASFieldName="EGORRESU"
                     Length="__PLACEHOLDER__">
                <Description>
                    <TranslatedText xml:lang="en">Original Units</TranslatedText>
                </Description>
                <CodeListRef CodeListOID="CL.UNIT"/>
            </ItemDef>
            <ItemDef OID="IT.EG.EGSTRESC" Name="EGSTRESC" DataType="text" SASFieldName="EGSTRESC" Length="20">
                <Description>
                    <TranslatedText xml:lang="en">Character Result/Finding in Std Format</TranslatedText>
                </Description>
                <CodeListRef CodeListOID="CL.EGSTRESC"/>
            </ItemDef>
            <ItemDef OID="IT.EG.EGSTRESN" Name="EGSTRESN" DataType="float" SASFieldName="EGSTRESN" Length="8"
                     SignificantDigits="3" def:DisplayFormat="8.3">
                <Description>
                    <TranslatedText xml:lang="en">Numeric Result/Finding in Standard Units</TranslatedText>
                </Description>
            </ItemDef>
            <ItemDef OID="IT.EG.EGSTRESU" Name="EGSTRESU" DataType="text" SASFieldName="EGSTRESU"
                     Length="__PLACEHOLDER__">
                <Description>
                    <TranslatedText xml:lang="en">Standard Units</TranslatedText>
                </Description>
                <CodeListRef CodeListOID="CL.UNIT"/>
            </ItemDef>
            <ItemDef OID="IT.EG.EGMETHOD" Name="EGMETHOD" DataType="text" SASFieldName="EGMETHOD"
                     Length="__PLACEHOLDER__">
                <Description>
                    <TranslatedText xml:lang="en">Method of Test or Examination</TranslatedText>
                </Description>
                <CodeListRef CodeListOID="CL.EGMETHOD"/>
            </ItemDef>
            <ItemDef OID="IT.EG.EGLOBXFL" Name="EGLOBXFL" DataType="text" SASFieldName="EGLOBXFL"
                     Length="__PLACEHOLDER__">
                <Description>
                    <TranslatedText xml:lang="en">Last Observation Before Exposure Flag</TranslatedText>
                </Description>
                <CodeListRef CodeListOID="CL.NY"/>
            </ItemDef>
            <ItemDef OID="IT.EG.EGEVAL" Name="EGEVAL" DataType="text" SASFieldName="EGEVAL" Length="__PLACEHOLDER__">
                <Description>
                    <TranslatedText xml:lang="en">Evaluator</TranslatedText>
                </Description>
                <CodeListRef CodeListOID="CL.EVAL"/>
            </ItemDef>
            <ItemDef OID="IT.EG.EGCLSIG" Name="EGCLSIG" DataType="text" SASFieldName="EGCLSIG" Length="__PLACEHOLDER__">
                <Description>
                    <TranslatedText xml:lang="en">Clinically Significant, Collected</TranslatedText>
                </Description>
                <CodeListRef CodeListOID="CL.NY"/>
            </ItemDef>
            <ItemDef OID="IT.EG.VISITNUM" Name="VISITNUM" DataType="integer" SASFieldName="VISITNUM"
                     Length="__PLACEHOLDER__">
                <Description>
                    <TranslatedText xml:lang="en">Visit Number</TranslatedText>
                </Description>
            </ItemDef>
            <ItemDef OID="IT.EG.EGDTC" Name="EGDTC" DataType="datetime" SASFieldName="EGDTC">
                <Description>
                    <TranslatedText xml:lang="en">Date/Time of ECG</TranslatedText>
                </Description>
            </ItemDef>
            <ItemDef OID="IT.EG.EGORRES.INTP" Name="EGORRES" DataType="text" SASFieldName="EGORRES" Length="20"/>
            <ItemDef OID="IT.EG.EGORRES.AVCOND" Name="EGORRES" DataType="text" SASFieldName="EGORRES" Length="8"
                     SignificantDigits="3" def:DisplayFormat="8.3"/>
            <ItemDef OID="IT.EG.EGORRES.AXISVOLT" Name="EGORRES" DataType="text" SASFieldName="EGORRES" Length="8"
                     SignificantDigits="3" def:DisplayFormat="8.3"/>
            <ItemDef OID="IT.EG.EGORRES.CHYPTENL" Name="EGORRES" DataType="text" SASFieldName="EGORRES" Length="8"
                     SignificantDigits="3" def:DisplayFormat="8.3"/>
            <ItemDef OID="IT.EG.EGORRES.TECHQUAL" Name="EGORRES" DataType="text" SASFieldName="EGORRES" Length="200"/>
            <ItemDef OID="IT.EG.EGORRES.IVTIACD" Name="EGORRES" DataType="text" SASFieldName="EGORRES" Length="8"
                     SignificantDigits="3" def:DisplayFormat="8.3"/>
            <ItemDef OID="IT.EG.EGORRES.PACEMAKR" Name="EGORRES" DataType="text" SASFieldName="EGORRES" Length="8"
                     SignificantDigits="3" def:DisplayFormat="8.3"/>
            <ItemDef OID="IT.EG.EGORRES.RHYNOS" Name="EGORRES" DataType="text" SASFieldName="EGORRES" Length="8"
                     SignificantDigits="3" def:DisplayFormat="8.3"/>
            <ItemDef OID="IT.EG.EGORRES.SNRARRY" Name="EGORRES" DataType="text" SASFieldName="EGORRES" Length="8"
                     SignificantDigits="3" def:DisplayFormat="8.3"/>
            <ItemDef OID="IT.EG.EGORRES.SPRARRY" Name="EGORRES" DataType="text" SASFieldName="EGORRES" Length="8"
                     SignificantDigits="3" def:DisplayFormat="8.3"/>
            <ItemDef OID="IT.EG.EGORRES.SPRTARRY" Name="EGORRES" DataType="text" SASFieldName="EGORRES" Length="8"
                     SignificantDigits="3" def:DisplayFormat="8.3"/>
            <ItemDef OID="IT.EG.EGORRES.VTARRY" Name="EGORRES" DataType="text" SASFieldName="EGORRES" Length="8"
                     SignificantDigits="3" def:DisplayFormat="8.3"/>
            <ItemDef OID="IT.EG.EGORRES.VTTARRY" Name="EGORRES" DataType="text" SASFieldName="EGORRES" Length="8"
                     SignificantDigits="3" def:DisplayFormat="8.3"/>
            <ItemDef OID="IT.EG.EGORRES.PRAG" Name="EGORRES" DataType="text" SASFieldName="EGORRES" Length="8"
                     SignificantDigits="3" def:DisplayFormat="8.3"/>
            <ItemDef OID="IT.EG.EGORRES.QRSAG" Name="EGORRES" DataType="text" SASFieldName="EGORRES" Length="8"
                     SignificantDigits="3" def:DisplayFormat="8.3"/>
            <ItemDef OID="IT.EG.EGORRES.QTAG" Name="EGORRES" DataType="text" SASFieldName="EGORRES" Length="8"
                     SignificantDigits="3" def:DisplayFormat="8.3"/>
            <ItemDef OID="IT.EG.EGORRES.QTCBAG" Name="EGORRES" DataType="text" SASFieldName="EGORRES" Length="8"
                     SignificantDigits="3" def:DisplayFormat="8.3"/>
            <ItemDef OID="IT.EG.EGORRES.QTCFAG" Name="EGORRES" DataType="text" SASFieldName="EGORRES" Length="8"
                     SignificantDigits="3" def:DisplayFormat="8.3"/>
            <ItemDef OID="IT.EG.EGORRES.RRAG" Name="EGORRES" DataType="text" SASFieldName="EGORRES" Length="8"
                     SignificantDigits="3" def:DisplayFormat="8.3"/>
            <ItemDef OID="IT.EG.EGORRES.EGHRMN" Name="EGORRES" DataType="text" SASFieldName="EGORRES" Length="8"
                     SignificantDigits="3" def:DisplayFormat="8.3"/>
            <ItemDef OID="IT.EG.EGORRES.QRS_AXIS" Name="EGORRES" DataType="text" SASFieldName="EGORRES" Length="8"
                     SignificantDigits="3" def:DisplayFormat="8.3"/>
            <ItemDef OID="IT.EG.EGORRESU.PRAG" Name="EGORRESU" DataType="text" SASFieldName="EGORRESU"
                     Length="__PLACEHOLDER__"/>
            <ItemDef OID="IT.EG.EGORRESU.QRSAG" Name="EGORRESU" DataType="text" SASFieldName="EGORRESU"
                     Length="__PLACEHOLDER__"/>
            <ItemDef OID="IT.EG.EGORRESU.QTAG" Name="EGORRESU" DataType="text" SASFieldName="EGORRESU"
                     Length="__PLACEHOLDER__"/>
            <ItemDef OID="IT.EG.EGORRESU.QTCBAG" Name="EGORRESU" DataType="text" SASFieldName="EGORRESU"
                     Length="__PLACEHOLDER__"/>
            <ItemDef OID="IT.EG.EGORRESU.QTCFAG" Name="EGORRESU" DataType="text" SASFieldName="EGORRESU"
                     Length="__PLACEHOLDER__"/>
            <ItemDef OID="IT.EG.EGORRESU.RRAG" Name="EGORRESU" DataType="text" SASFieldName="EGORRESU"
                     Length="__PLACEHOLDER__"/>
            <ItemDef OID="IT.EG.EGORRESU.EGHRMN" Name="EGORRESU" DataType="text" SASFieldName="EGORRESU"
                     Length="__PLACEHOLDER__"/>
            <ItemDef OID="IT.EG.EGORRESU.QRS_AXIS" Name="EGORRESU" DataType="text" SASFieldName="EGORRESU"
                     Length="__PLACEHOLDER__"/>
            <ItemDef OID="IT.CM.STUDYID" Name="STUDYID" DataType="text" SASFieldName="STUDYID" Length="__PLACEHOLDER__">
                <Description>
                    <TranslatedText xml:lang="en">Study Identifier</TranslatedText>
                </Description>
            </ItemDef>
            <ItemDef OID="IT.CM.DOMAIN" Name="DOMAIN" DataType="text" SASFieldName="DOMAIN" Length="__PLACEHOLDER__">
                <Description>
                    <TranslatedText xml:lang="en">Domain Abbreviation</TranslatedText>
                </Description>
            </ItemDef>
            <ItemDef OID="IT.CM.USUBJID" Name="USUBJID" DataType="text" SASFieldName="USUBJID" Length="__PLACEHOLDER__">
                <Description>
                    <TranslatedText xml:lang="en">Unique Subject Identifier</TranslatedText>
                </Description>
            </ItemDef>
            <ItemDef OID="IT.CM.CMSEQ" Name="CMSEQ" DataType="integer" SASFieldName="CMSEQ" Length="__PLACEHOLDER__">
                <Description>
                    <TranslatedText xml:lang="en">Sequence Number</TranslatedText>
                </Description>
            </ItemDef>
            <ItemDef OID="IT.CM.CMTRT" Name="CMTRT" DataType="text" SASFieldName="CMTRT" Length="200">
                <Description>
                    <TranslatedText xml:lang="en">Reported Name of Drug, Med, or Therapy</TranslatedText>
                </Description>
            </ItemDef>
            <ItemDef OID="IT.CM.CMDECOD" Name="CMDECOD" DataType="text" SASFieldName="CMDECOD" Length="200">
                <Description>
                    <TranslatedText xml:lang="en">Standardized Medication Name</TranslatedText>
                </Description>
            </ItemDef>
            <ItemDef OID="IT.CM.CMCAT" Name="CMCAT" DataType="text" SASFieldName="CMCAT" Length="200">
                <Description>
                    <TranslatedText xml:lang="en">Category for Medication</TranslatedText>
                </Description>
            </ItemDef>
            <ItemDef OID="IT.CM.CMSCAT" Name="CMSCAT" DataType="text" SASFieldName="CMSCAT" Length="200">
                <Description>
                    <TranslatedText xml:lang="en">Subcategory for Medication</TranslatedText>
                </Description>
            </ItemDef>
            <ItemDef OID="IT.CM.CMPRESP" Name="CMPRESP" DataType="text" SASFieldName="CMPRESP" Length="1">
                <Description>
                    <TranslatedText xml:lang="en">CM Pre-specified</TranslatedText>
                </Description>
                <CodeListRef CodeListOID="CL.NY"/>
            </ItemDef>
            <ItemDef OID="IT.CM.CMOCCUR" Name="CMOCCUR" DataType="text" SASFieldName="CMOCCUR" Length="1">
                <Description>
                    <TranslatedText xml:lang="en">CM Occurrence</TranslatedText>
                </Description>
                <CodeListRef CodeListOID="CL.NY"/>
            </ItemDef>
            <ItemDef OID="IT.CM.CMINDC" Name="CMINDC" DataType="text" SASFieldName="CMINDC" Length="200">
                <Description>
                    <TranslatedText xml:lang="en">Indication</TranslatedText>
                </Description>
            </ItemDef>
            <ItemDef OID="IT.CM.CMDOSE" Name="CMDOSE" DataType="text" SASFieldName="CMDOSE" Length="40">
                <Description>
                    <TranslatedText xml:lang="en">Dose per Administration</TranslatedText>
                </Description>
            </ItemDef>
            <ItemDef OID="IT.CM.CMDOSU" Name="CMDOSU" DataType="text" SASFieldName="CMDOSU" Length="40">
                <Description>
                    <TranslatedText xml:lang="en">Dose Units</TranslatedText>
                </Description>
                <CodeListRef CodeListOID="CL.UNIT"/>
            </ItemDef>
            <ItemDef OID="IT.CM.CMDOSFRM" Name="CMDOSFRM" DataType="text" SASFieldName="CMDOSFRM" Length="40">
                <Description>
                    <TranslatedText xml:lang="en">Dose Form</TranslatedText>
                </Description>
                <CodeListRef CodeListOID="CL.FRM"/>
            </ItemDef>
            <ItemDef OID="IT.CM.CMROUTE" Name="CMROUTE" DataType="text" SASFieldName="CMROUTE" Length="200">
                <Description>
                    <TranslatedText xml:lang="en">Route of Administration</TranslatedText>
                </Description>
                <CodeListRef CodeListOID="CL.ROUTE"/>
            </ItemDef>
            <ItemDef OID="IT.CM.CMSTDTC" Name="CMSTDTC" DataType="datetime" SASFieldName="CMSTDTC">
                <Description>
                    <TranslatedText xml:lang="en">Start Date/Time of Medication</TranslatedText>
                </Description>
            </ItemDef>
            <ItemDef OID="IT.CM.CMENDTC" Name="CMENDTC" DataType="datetime" SASFieldName="CMENDTC">
                <Description>
                    <TranslatedText xml:lang="en">End Date/Time of Medication</TranslatedText>
                </Description>
            </ItemDef>
            <ItemDef OID="IT.LB.STUDYID" Name="STUDYID" DataType="text" SASFieldName="STUDYID" Length="__PLACEHOLDER__">
                <Description>
                    <TranslatedText xml:lang="en">Study Identifier</TranslatedText>
                </Description>
            </ItemDef>
            <ItemDef OID="IT.LB.DOMAIN" Name="DOMAIN" DataType="text" SASFieldName="DOMAIN" Length="__PLACEHOLDER__">
                <Description>
                    <TranslatedText xml:lang="en">Domain Abbreviation</TranslatedText>
                </Description>
            </ItemDef>
            <ItemDef OID="IT.LB.USUBJID" Name="USUBJID" DataType="text" SASFieldName="USUBJID" Length="__PLACEHOLDER__">
                <Description>
                    <TranslatedText xml:lang="en">Unique Subject Identifier</TranslatedText>
                </Description>
            </ItemDef>
            <ItemDef OID="IT.LB.LBSEQ" Name="LBSEQ" DataType="integer" SASFieldName="LBSEQ" Length="__PLACEHOLDER__">
                <Description>
                    <TranslatedText xml:lang="en">Sequence Number</TranslatedText>
                </Description>
            </ItemDef>
            <ItemDef OID="IT.LB.LBTESTCD" Name="LBTESTCD" DataType="text" SASFieldName="LBTESTCD"
                     Length="__PLACEHOLDER__">
                <Description>
                    <TranslatedText xml:lang="en">Lab Test or Examination Short Name</TranslatedText>
                </Description>
                <CodeListRef CodeListOID="CL.LBTESTCD"/>
            </ItemDef>
            <ItemDef OID="IT.LB.LBTEST" Name="LBTEST" DataType="text" SASFieldName="LBTEST" Length="__PLACEHOLDER__">
                <Description>
                    <TranslatedText xml:lang="en">Lab Test or Examination Name</TranslatedText>
                </Description>
                <CodeListRef CodeListOID="CL.LBTEST"/>
            </ItemDef>
            <ItemDef OID="IT.LB.LBCAT" Name="LBCAT" DataType="text" SASFieldName="LBCAT" Length="__PLACEHOLDER__">
                <Description>
                    <TranslatedText xml:lang="en">Category for Lab Test</TranslatedText>
                </Description>
            </ItemDef>
            <ItemDef OID="IT.LB.LBORRES" Name="LBORRES" DataType="float" SASFieldName="LBORRES" Length="12"
                     SignificantDigits="4" def:DisplayFormat="12.4">
                <Description>
                    <TranslatedText xml:lang="en">Result or Finding in Original Units</TranslatedText>
                </Description>
            </ItemDef>
            <ItemDef OID="IT.LB.LBORRESU" Name="LBORRESU" DataType="text" SASFieldName="LBORRESU"
                     Length="__PLACEHOLDER__">
                <Description>
                    <TranslatedText xml:lang="en">Original Units</TranslatedText>
                </Description>
                <CodeListRef CodeListOID="CL.UNIT"/>
            </ItemDef>
            <ItemDef OID="IT.LB.LBORNRLO" Name="LBORNRLO" DataType="text" SASFieldName="LBORNRLO"
                     Length="__PLACEHOLDER__">
                <Description>
                    <TranslatedText xml:lang="en">Reference Range Lower Limit in Orig Unit</TranslatedText>
                </Description>
            </ItemDef>
            <ItemDef OID="IT.LB.LBORNRHI" Name="LBORNRHI" DataType="text" SASFieldName="LBORNRHI"
                     Length="__PLACEHOLDER__">
                <Description>
                    <TranslatedText xml:lang="en">Reference Range Upper Limit in Orig Unit</TranslatedText>
                </Description>
            </ItemDef>
            <ItemDef OID="IT.LB.LBSTRESC" Name="LBSTRESC" DataType="float" SASFieldName="LBSTRESC" Length="12"
                     SignificantDigits="4" def:DisplayFormat="12.4">
                <Description>
                    <TranslatedText xml:lang="en">Character Result/Finding in Std Format</TranslatedText>
                </Description>
                <CodeListRef CodeListOID="CL.LBSTRESC"/>
            </ItemDef>
            <ItemDef OID="IT.LB.LBSTRESN" Name="LBSTRESN" DataType="float" SASFieldName="LBSTRESN" Length="12"
                     SignificantDigits="4" def:DisplayFormat="12.4">
                <Description>
                    <TranslatedText xml:lang="en">Numeric Result/Finding in Standard Units</TranslatedText>
                </Description>
            </ItemDef>
            <ItemDef OID="IT.LB.LBSTRESU" Name="LBSTRESU" DataType="text" SASFieldName="LBSTRESU"
                     Length="__PLACEHOLDER__">
                <Description>
                    <TranslatedText xml:lang="en">Standard Units</TranslatedText>
                </Description>
                <CodeListRef CodeListOID="CL.UNIT"/>
            </ItemDef>
            <ItemDef OID="IT.LB.LBSTNRLO" Name="LBSTNRLO" DataType="integer" SASFieldName="LBSTNRLO"
                     Length="__PLACEHOLDER__">
                <Description>
                    <TranslatedText xml:lang="en">Reference Range Lower Limit-Std Units</TranslatedText>
                </Description>
            </ItemDef>
            <ItemDef OID="IT.LB.LBSTNRHI" Name="LBSTNRHI" DataType="integer" SASFieldName="LBSTNRHI"
                     Length="__PLACEHOLDER__">
                <Description>
                    <TranslatedText xml:lang="en">Reference Range Upper Limit-Std Units</TranslatedText>
                </Description>
            </ItemDef>
            <ItemDef OID="IT.LB.LBNRIND" Name="LBNRIND" DataType="text" SASFieldName="LBNRIND" Length="__PLACEHOLDER__">
                <Description>
                    <TranslatedText xml:lang="en">Reference Range Indicator</TranslatedText>
                </Description>
                <CodeListRef CodeListOID="CL.NRIND"/>
            </ItemDef>
            <ItemDef OID="IT.LB.LBSPEC" Name="LBSPEC" DataType="text" SASFieldName="LBSPEC" Length="__PLACEHOLDER__">
                <Description>
                    <TranslatedText xml:lang="en">Specimen Type</TranslatedText>
                </Description>
                <CodeListRef CodeListOID="CL.SPECTYPE"/>
            </ItemDef>
            <ItemDef OID="IT.LB.LBMETHOD" Name="LBMETHOD" DataType="text" SASFieldName="LBMETHOD"
                     Length="__PLACEHOLDER__">
                <Description>
                    <TranslatedText xml:lang="en">Method of Test or Examination</TranslatedText>
                </Description>
                <CodeListRef CodeListOID="CL.METHOD"/>
            </ItemDef>
            <ItemDef OID="IT.LB.LBLOBXFL" Name="LBLOBXFL" DataType="text" SASFieldName="LBLOBXFL"
                     Length="__PLACEHOLDER__">
                <Description>
                    <TranslatedText xml:lang="en">Last Observation Before Exposure Flag</TranslatedText>
                </Description>
                <CodeListRef CodeListOID="CL.NY"/>
            </ItemDef>
            <ItemDef OID="IT.LB.LBFAST" Name="LBFAST" DataType="text" SASFieldName="LBFAST" Length="__PLACEHOLDER__">
                <Description>
                    <TranslatedText xml:lang="en">Fasting Status</TranslatedText>
                </Description>
                <CodeListRef CodeListOID="CL.NY"/>
            </ItemDef>
            <ItemDef OID="IT.LB.VISITNUM" Name="VISITNUM" DataType="integer" SASFieldName="VISITNUM"
                     Length="__PLACEHOLDER__">
                <Description>
                    <TranslatedText xml:lang="en">Visit Number</TranslatedText>
                </Description>
            </ItemDef>
            <ItemDef OID="IT.LB.LBDTC" Name="LBDTC" DataType="datetime" SASFieldName="LBDTC">
                <Description>
                    <TranslatedText xml:lang="en">Date/Time of Specimen Collection</TranslatedText>
                </Description>
            </ItemDef>
            <ItemDef OID="IT.LB.LBORRES.HGB" Name="LBORRES" DataType="float" SASFieldName="LBORRES" Length="12"
                     SignificantDigits="4" def:DisplayFormat="12.4"/>
            <ItemDef OID="IT.LB.LBORRES.HCT" Name="LBORRES" DataType="float" SASFieldName="LBORRES" Length="12"
                     SignificantDigits="4" def:DisplayFormat="12.4"/>
            <ItemDef OID="IT.LB.LBORRES.RBC" Name="LBORRES" DataType="float" SASFieldName="LBORRES" Length="12"
                     SignificantDigits="4" def:DisplayFormat="12.4"/>
            <ItemDef OID="IT.LB.LBORRES.MCH" Name="LBORRES" DataType="float" SASFieldName="LBORRES" Length="12"
                     SignificantDigits="4" def:DisplayFormat="12.4"/>
            <ItemDef OID="IT.LB.LBORRES.MCHC" Name="LBORRES" DataType="float" SASFieldName="LBORRES" Length="12"
                     SignificantDigits="4" def:DisplayFormat="12.4"/>
            <ItemDef OID="IT.LB.LBORRES.MCV" Name="LBORRES" DataType="float" SASFieldName="LBORRES" Length="12"
                     SignificantDigits="4" def:DisplayFormat="12.4"/>
            <ItemDef OID="IT.LB.LBORRES.WBC" Name="LBORRES" DataType="float" SASFieldName="LBORRES" Length="12"
                     SignificantDigits="4" def:DisplayFormat="12.4"/>
            <ItemDef OID="IT.LB.LBORRES.NEUTSG" Name="LBORRES" DataType="float" SASFieldName="LBORRES" Length="12"
                     SignificantDigits="4" def:DisplayFormat="12.4"/>
            <ItemDef OID="IT.LB.LBORRES.NEUTB" Name="LBORRES" DataType="float" SASFieldName="LBORRES" Length="12"
                     SignificantDigits="4" def:DisplayFormat="12.4"/>
            <ItemDef OID="IT.LB.LBORRES.NEUT" Name="LBORRES" DataType="float" SASFieldName="LBORRES" Length="12"
                     SignificantDigits="4" def:DisplayFormat="12.4"/>
            <ItemDef OID="IT.LB.LBORRES.MONO" Name="LBORRES" DataType="float" SASFieldName="LBORRES" Length="12"
                     SignificantDigits="4" def:DisplayFormat="12.4"/>
            <ItemDef OID="IT.LB.LBORRES.EOS" Name="LBORRES" DataType="float" SASFieldName="LBORRES" Length="12"
                     SignificantDigits="4" def:DisplayFormat="12.4"/>
            <ItemDef OID="IT.LB.LBORRES.BASO" Name="LBORRES" DataType="float" SASFieldName="LBORRES" Length="12"
                     SignificantDigits="4" def:DisplayFormat="12.4"/>
            <ItemDef OID="IT.LB.LBORRES.PLAT" Name="LBORRES" DataType="float" SASFieldName="LBORRES" Length="12"
                     SignificantDigits="4" def:DisplayFormat="12.4"/>
            <ItemDef OID="IT.LB.LBORRES.MICROCY" Name="LBORRES" DataType="text" SASFieldName="LBORRES" Length="200"/>
            <ItemDef OID="IT.LB.LBORRES.MACROCY" Name="LBORRES" DataType="text" SASFieldName="LBORRES" Length="200"/>
            <ItemDef OID="IT.LB.LBORRES.ANISO" Name="LBORRES" DataType="text" SASFieldName="LBORRES" Length="200"/>
            <ItemDef OID="IT.LB.LBORRES.POIKILO" Name="LBORRES" DataType="text" SASFieldName="LBORRES" Length="200"/>
            <ItemDef OID="IT.LB.LBORRES.POLYCHR" Name="LBORRES" DataType="text" SASFieldName="LBORRES" Length="200"/>
            <ItemDef OID="IT.LB.LBORRES.ALT" Name="LBORRES" DataType="float" SASFieldName="LBORRES" Length="12"
                     SignificantDigits="4" def:DisplayFormat="12.4"/>
            <ItemDef OID="IT.LB.LBORRES.ALB" Name="LBORRES" DataType="text" SASFieldName="LBORRES" Length="200"
                     SignificantDigits="4"/>
            <ItemDef OID="IT.LB.LBORRES.ALP" Name="LBORRES" DataType="float" SASFieldName="LBORRES" Length="12"
                     SignificantDigits="4" def:DisplayFormat="12.4"/>
            <ItemDef OID="IT.LB.LBORRES.AST" Name="LBORRES" DataType="float" SASFieldName="LBORRES" Length="12"
                     SignificantDigits="4" def:DisplayFormat="12.4"/>
            <ItemDef OID="IT.LB.LBORRES.CREAT" Name="LBORRES" DataType="float" SASFieldName="LBORRES" Length="12"
                     SignificantDigits="4" def:DisplayFormat="12.4"/>
            <ItemDef OID="IT.LB.LBORRES.K" Name="LBORRES" DataType="float" SASFieldName="LBORRES" Length="12"
                     SignificantDigits="4" def:DisplayFormat="12.4"/>
            <ItemDef OID="IT.LB.LBORRES.SODIUM" Name="LBORRES" DataType="float" SASFieldName="LBORRES" Length="12"
                     SignificantDigits="4" def:DisplayFormat="12.4"/>
            <ItemDef OID="IT.LB.LBORRES.UREAN" Name="LBORRES" DataType="float" SASFieldName="LBORRES" Length="12"
                     SignificantDigits="4" def:DisplayFormat="12.4"/>
            <ItemDef OID="IT.LB.LBORRES.BICARB" Name="LBORRES" DataType="float" SASFieldName="LBORRES" Length="12"
                     SignificantDigits="4" def:DisplayFormat="12.4"/>
            <ItemDef OID="IT.LB.LBORRES.CL" Name="LBORRES" DataType="float" SASFieldName="LBORRES" Length="12"
                     SignificantDigits="4" def:DisplayFormat="12.4"/>
            <ItemDef OID="IT.LB.LBORRES.BILI" Name="LBORRES" DataType="text" SASFieldName="LBORRES" Length="200"
                     SignificantDigits="4"/>
            <ItemDef OID="IT.LB.LBORRES.GGT" Name="LBORRES" DataType="float" SASFieldName="LBORRES" Length="12"
                     SignificantDigits="4" def:DisplayFormat="12.4"/>
            <ItemDef OID="IT.LB.LBORRES.URATE" Name="LBORRES" DataType="float" SASFieldName="LBORRES" Length="12"
                     SignificantDigits="4" def:DisplayFormat="12.4"/>
            <ItemDef OID="IT.LB.LBORRES.PHOS" Name="LBORRES" DataType="float" SASFieldName="LBORRES" Length="12"
                     SignificantDigits="4" def:DisplayFormat="12.4"/>
            <ItemDef OID="IT.LB.LBORRES.CA" Name="LBORRES" DataType="float" SASFieldName="LBORRES" Length="12"
                     SignificantDigits="4" def:DisplayFormat="12.4"/>
            <ItemDef OID="IT.LB.LBORRES.GLUC" Name="LBORRES" DataType="text" SASFieldName="LBORRES" Length="200"/>
            <ItemDef OID="IT.LB.LBORRES.PROT" Name="LBORRES" DataType="text" SASFieldName="LBORRES" Length="200"
                     SignificantDigits="4"/>
            <ItemDef OID="IT.LB.LBORRES.CHOL" Name="LBORRES" DataType="float" SASFieldName="LBORRES" Length="12"
                     SignificantDigits="4" def:DisplayFormat="12.4"/>
            <ItemDef OID="IT.LB.LBORRES.T3UP" Name="LBORRES" DataType="float" SASFieldName="LBORRES" Length="12"
                     SignificantDigits="4" def:DisplayFormat="12.4"/>
            <ItemDef OID="IT.LB.LBORRES.T3" Name="LBORRES" DataType="float" SASFieldName="LBORRES" Length="12"
                     SignificantDigits="4" def:DisplayFormat="12.4"/>
            <ItemDef OID="IT.LB.LBORRES.T4FR" Name="LBORRES" DataType="float" SASFieldName="LBORRES" Length="12"
                     SignificantDigits="4" def:DisplayFormat="12.4"/>
            <ItemDef OID="IT.LB.LBORRES.T4FRIDX" Name="LBORRES" DataType="float" SASFieldName="LBORRES" Length="12"
                     SignificantDigits="4" def:DisplayFormat="12.4"/>
            <ItemDef OID="IT.LB.LBORRES.TSH" Name="LBORRES" DataType="float" SASFieldName="LBORRES" Length="12"
                     SignificantDigits="4" def:DisplayFormat="12.4"/>
            <ItemDef OID="IT.LB.LBORRES.VITB9" Name="LBORRES" DataType="float" SASFieldName="LBORRES" Length="12"
                     SignificantDigits="4" def:DisplayFormat="12.4"/>
            <ItemDef OID="IT.LB.LBORRES.VITB12" Name="LBORRES" DataType="float" SASFieldName="LBORRES" Length="12"
                     SignificantDigits="4" def:DisplayFormat="12.4"/>
            <ItemDef OID="IT.LB.LBORRES.COLOR" Name="LBORRES" DataType="text" SASFieldName="LBORRES" Length="200"/>
            <ItemDef OID="IT.LB.LBORRES.SPGRAV" Name="LBORRES" DataType="float" SASFieldName="LBORRES" Length="12"
                     SignificantDigits="4" def:DisplayFormat="12.4"/>
            <ItemDef OID="IT.LB.LBORRES.KETONES" Name="LBORRES" DataType="text" SASFieldName="LBORRES" Length="200"
                     SignificantDigits="4"/>
            <ItemDef OID="IT.LB.LBORRES.UROBIL" Name="LBORRES" DataType="float" SASFieldName="LBORRES" Length="12"
                     SignificantDigits="4" def:DisplayFormat="12.4"/>
            <ItemDef OID="IT.LB.LBORRES.OCCBLD" Name="LBORRES" DataType="text" SASFieldName="LBORRES" Length="200"
                     SignificantDigits="4"/>
            <ItemDef OID="IT.LB.LBORRES.NITRITE" Name="LBORRES" DataType="text" SASFieldName="LBORRES" Length="200"
                     SignificantDigits="4"/>
            <ItemDef OID="IT.LB.LBORRES.HBA1C" Name="LBORRES" DataType="float" SASFieldName="LBORRES" Length="12"
                     SignificantDigits="4" def:DisplayFormat="12.4"/>
            <ItemDef OID="IT.LB.LBORRES.HBA1CHGB" Name="LBORRES" DataType="float" SASFieldName="LBORRES" Length="12"
                     SignificantDigits="4" def:DisplayFormat="12.4"/>
            <ItemDef OID="IT.LB.LBORRESU.HGB" Name="LBORRESU" DataType="text" SASFieldName="LBORRESU"
                     Length="__PLACEHOLDER__"/>
            <ItemDef OID="IT.LB.LBORRESU.HCT" Name="LBORRESU" DataType="text" SASFieldName="LBORRESU"
                     Length="__PLACEHOLDER__"/>
            <ItemDef OID="IT.LB.LBORRESU.RBC" Name="LBORRESU" DataType="text" SASFieldName="LBORRESU"
                     Length="__PLACEHOLDER__"/>
            <ItemDef OID="IT.LB.LBORRESU.MCH" Name="LBORRESU" DataType="text" SASFieldName="LBORRESU"
                     Length="__PLACEHOLDER__"/>
            <ItemDef OID="IT.LB.LBORRESU.MCHC" Name="LBORRESU" DataType="text" SASFieldName="LBORRESU"
                     Length="__PLACEHOLDER__"/>
            <ItemDef OID="IT.LB.LBORRESU.MCV" Name="LBORRESU" DataType="text" SASFieldName="LBORRESU"
                     Length="__PLACEHOLDER__"/>
            <ItemDef OID="IT.LB.LBORRESU.WBC" Name="LBORRESU" DataType="text" SASFieldName="LBORRESU"
                     Length="__PLACEHOLDER__"/>
            <ItemDef OID="IT.LB.LBORRESU.NEUTSG" Name="LBORRESU" DataType="text" SASFieldName="LBORRESU"
                     Length="__PLACEHOLDER__"/>
            <ItemDef OID="IT.LB.LBORRESU.NEUTB" Name="LBORRESU" DataType="text" SASFieldName="LBORRESU"
                     Length="__PLACEHOLDER__"/>
            <ItemDef OID="IT.LB.LBORRESU.NEUT" Name="LBORRESU" DataType="text" SASFieldName="LBORRESU"
                     Length="__PLACEHOLDER__"/>
            <ItemDef OID="IT.LB.LBORRESU.MONO" Name="LBORRESU" DataType="text" SASFieldName="LBORRESU"
                     Length="__PLACEHOLDER__"/>
            <ItemDef OID="IT.LB.LBORRESU.EOS" Name="LBORRESU" DataType="text" SASFieldName="LBORRESU"
                     Length="__PLACEHOLDER__"/>
            <ItemDef OID="IT.LB.LBORRESU.BASO" Name="LBORRESU" DataType="text" SASFieldName="LBORRESU"
                     Length="__PLACEHOLDER__"/>
            <ItemDef OID="IT.LB.LBORRESU.PLAT" Name="LBORRESU" DataType="text" SASFieldName="LBORRESU"
                     Length="__PLACEHOLDER__"/>
            <ItemDef OID="IT.LB.LBORRESU.ALT" Name="LBORRESU" DataType="text" SASFieldName="LBORRESU"
                     Length="__PLACEHOLDER__"/>
            <ItemDef OID="IT.LB.LBORRESU.ALP" Name="LBORRESU" DataType="text" SASFieldName="LBORRESU"
                     Length="__PLACEHOLDER__"/>
            <ItemDef OID="IT.LB.LBORRESU.AST" Name="LBORRESU" DataType="text" SASFieldName="LBORRESU"
                     Length="__PLACEHOLDER__"/>
            <ItemDef OID="IT.LB.LBORRESU.CREAT" Name="LBORRESU" DataType="text" SASFieldName="LBORRESU"
                     Length="__PLACEHOLDER__"/>
            <ItemDef OID="IT.LB.LBORRESU.K" Name="LBORRESU" DataType="text" SASFieldName="LBORRESU"
                     Length="__PLACEHOLDER__"/>
            <ItemDef OID="IT.LB.LBORRESU.SODIUM" Name="LBORRESU" DataType="text" SASFieldName="LBORRESU"
                     Length="__PLACEHOLDER__"/>
            <ItemDef OID="IT.LB.LBORRESU.UREAN" Name="LBORRESU" DataType="text" SASFieldName="LBORRESU"
                     Length="__PLACEHOLDER__"/>
            <ItemDef OID="IT.LB.LBORRESU.BICARB" Name="LBORRESU" DataType="text" SASFieldName="LBORRESU"
                     Length="__PLACEHOLDER__"/>
            <ItemDef OID="IT.LB.LBORRESU.CL" Name="LBORRESU" DataType="text" SASFieldName="LBORRESU"
                     Length="__PLACEHOLDER__"/>
            <ItemDef OID="IT.LB.LBORRESU.GGT" Name="LBORRESU" DataType="text" SASFieldName="LBORRESU"
                     Length="__PLACEHOLDER__"/>
            <ItemDef OID="IT.LB.LBORRESU.URATE" Name="LBORRESU" DataType="text" SASFieldName="LBORRESU"
                     Length="__PLACEHOLDER__"/>
            <ItemDef OID="IT.LB.LBORRESU.PHOS" Name="LBORRESU" DataType="text" SASFieldName="LBORRESU"
                     Length="__PLACEHOLDER__"/>
            <ItemDef OID="IT.LB.LBORRESU.CA" Name="LBORRESU" DataType="text" SASFieldName="LBORRESU"
                     Length="__PLACEHOLDER__"/>
            <ItemDef OID="IT.LB.LBORRESU.CHOL" Name="LBORRESU" DataType="text" SASFieldName="LBORRESU"
                     Length="__PLACEHOLDER__"/>
            <ItemDef OID="IT.LB.LBORRESU.T3UP" Name="LBORRESU" DataType="text" SASFieldName="LBORRESU"
                     Length="__PLACEHOLDER__"/>
            <ItemDef OID="IT.LB.LBORRESU.T3" Name="LBORRESU" DataType="text" SASFieldName="LBORRESU"
                     Length="__PLACEHOLDER__"/>
            <ItemDef OID="IT.LB.LBORRESU.T4FR" Name="LBORRESU" DataType="text" SASFieldName="LBORRESU"
                     Length="__PLACEHOLDER__"/>
            <ItemDef OID="IT.LB.LBORRESU.T4FRIDX" Name="LBORRESU" DataType="text" SASFieldName="LBORRESU"
                     Length="__PLACEHOLDER__"/>
            <ItemDef OID="IT.LB.LBORRESU.TSH" Name="LBORRESU" DataType="text" SASFieldName="LBORRESU"
                     Length="__PLACEHOLDER__"/>
            <ItemDef OID="IT.LB.LBORRESU.VITB9" Name="LBORRESU" DataType="text" SASFieldName="LBORRESU"
                     Length="__PLACEHOLDER__"/>
            <ItemDef OID="IT.LB.LBORRESU.VITB12" Name="LBORRESU" DataType="text" SASFieldName="LBORRESU"
                     Length="__PLACEHOLDER__"/>
            <ItemDef OID="IT.LB.LBORRESU.UROBIL" Name="LBORRESU" DataType="text" SASFieldName="LBORRESU"
                     Length="__PLACEHOLDER__"/>
            <ItemDef OID="IT.LB.LBORRESU.HBA1C" Name="LBORRESU" DataType="text" SASFieldName="LBORRESU"
                     Length="__PLACEHOLDER__"/>
            <ItemDef OID="IT.LB.LBORRESU.HBA1CHGB" Name="LBORRESU" DataType="text" SASFieldName="LBORRESU"
                     Length="__PLACEHOLDER__"/>
            <ItemDef OID="IT.MB.STUDYID" Name="STUDYID" DataType="text" SASFieldName="STUDYID" Length="__PLACEHOLDER__">
                <Description>
                    <TranslatedText xml:lang="en">Study Identifier</TranslatedText>
                </Description>
            </ItemDef>
            <ItemDef OID="IT.MB.DOMAIN" Name="DOMAIN" DataType="text" SASFieldName="DOMAIN" Length="__PLACEHOLDER__">
                <Description>
                    <TranslatedText xml:lang="en">Domain Abbreviation</TranslatedText>
                </Description>
            </ItemDef>
            <ItemDef OID="IT.MB.USUBJID" Name="USUBJID" DataType="text" SASFieldName="USUBJID" Length="__PLACEHOLDER__">
                <Description>
                    <TranslatedText xml:lang="en">Unique Subject Identifier</TranslatedText>
                </Description>
            </ItemDef>
            <ItemDef OID="IT.MB.MBSEQ" Name="MBSEQ" DataType="integer" SASFieldName="MBSEQ" Length="__PLACEHOLDER__">
                <Description>
                    <TranslatedText xml:lang="en">Sequence Number</TranslatedText>
                </Description>
            </ItemDef>
            <ItemDef OID="IT.MB.MBTESTCD" Name="MBTESTCD" DataType="text" SASFieldName="MBTESTCD"
                     Length="__PLACEHOLDER__">
                <Description>
                    <TranslatedText xml:lang="en">Microbiology Test or Finding Short Name</TranslatedText>
                </Description>
                <CodeListRef CodeListOID="CL.MBTESTCD"/>
            </ItemDef>
            <ItemDef OID="IT.MB.MBTEST" Name="MBTEST" DataType="text" SASFieldName="MBTEST" Length="__PLACEHOLDER__">
                <Description>
                    <TranslatedText xml:lang="en">Microbiology Test or Finding Name</TranslatedText>
                </Description>
                <CodeListRef CodeListOID="CL.MBTEST"/>
            </ItemDef>
            <ItemDef OID="IT.MB.MBTSTDTL" Name="MBTSTDTL" DataType="text" SASFieldName="MBTSTDTL"
                     Length="__PLACEHOLDER__">
                <Description>
                    <TranslatedText xml:lang="en">Measurement, Test or Examination Detail</TranslatedText>
                </Description>
                <CodeListRef CodeListOID="CL.MBFTSDTL"/>
            </ItemDef>
            <ItemDef OID="IT.MB.MBORRES" Name="MBORRES" DataType="text" SASFieldName="MBORRES" Length="20">
                <Description>
                    <TranslatedText xml:lang="en">Result or Finding in Original Units</TranslatedText>
                </Description>
            </ItemDef>
            <ItemDef OID="IT.MB.MBSTRESC" Name="MBSTRESC" DataType="text" SASFieldName="MBSTRESC" Length="20">
                <Description>
                    <TranslatedText xml:lang="en">Result or Finding in Standard Format</TranslatedText>
                </Description>
            </ItemDef>
            <ItemDef OID="IT.MB.MBSPEC" Name="MBSPEC" DataType="text" SASFieldName="MBSPEC" Length="__PLACEHOLDER__">
                <Description>
                    <TranslatedText xml:lang="en">Specimen Material Type</TranslatedText>
                </Description>
                <CodeListRef CodeListOID="CL.SPECTYPE"/>
            </ItemDef>
            <ItemDef OID="IT.MB.MBMETHOD" Name="MBMETHOD" DataType="text" SASFieldName="MBMETHOD"
                     Length="__PLACEHOLDER__">
                <Description>
                    <TranslatedText xml:lang="en">Method of Test or Examination</TranslatedText>
                </Description>
                <CodeListRef CodeListOID="CL.METHOD"/>
            </ItemDef>
            <ItemDef OID="IT.MB.VISITNUM" Name="VISITNUM" DataType="integer" SASFieldName="VISITNUM"
                     Length="__PLACEHOLDER__">
                <Description>
                    <TranslatedText xml:lang="en">Visit Number</TranslatedText>
                </Description>
            </ItemDef>
            <ItemDef OID="IT.MB.MBDTC" Name="MBDTC" DataType="datetime" SASFieldName="MBDTC">
                <Description>
                    <TranslatedText xml:lang="en">Date/Time of Collection</TranslatedText>
                </Description>
            </ItemDef>
            <ItemDef OID="IT.MB.MBORRES.TPLAB" Name="MBORRES" DataType="text" SASFieldName="MBORRES" Length="20"/>
            <ItemDef OID="IT.MB.MBORRES.TPADNA" Name="MBORRES" DataType="text" SASFieldName="MBORRES" Length="20"/>
            <ItemDef OID="IT.EC.STUDYID" Name="STUDYID" DataType="text" SASFieldName="STUDYID" Length="__PLACEHOLDER__">
                <Description>
                    <TranslatedText xml:lang="en">Study Identifier</TranslatedText>
                </Description>
            </ItemDef>
            <ItemDef OID="IT.EC.DOMAIN" Name="DOMAIN" DataType="text" SASFieldName="DOMAIN" Length="__PLACEHOLDER__">
                <Description>
                    <TranslatedText xml:lang="en">Domain Abbreviation</TranslatedText>
                </Description>
            </ItemDef>
            <ItemDef OID="IT.EC.USUBJID" Name="USUBJID" DataType="text" SASFieldName="USUBJID" Length="__PLACEHOLDER__">
                <Description>
                    <TranslatedText xml:lang="en">Unique Subject Identifier</TranslatedText>
                </Description>
            </ItemDef>
            <ItemDef OID="IT.EC.ECSEQ" Name="ECSEQ" DataType="integer" SASFieldName="ECSEQ" Length="__PLACEHOLDER__">
                <Description>
                    <TranslatedText xml:lang="en">Sequence Number</TranslatedText>
                </Description>
            </ItemDef>
            <ItemDef OID="IT.EC.ECREFID" Name="ECREFID" DataType="text" SASFieldName="ECREFID" Length="__PLACEHOLDER__">
                <Description>
                    <TranslatedText xml:lang="en">Reference ID</TranslatedText>
                </Description>
            </ItemDef>
            <ItemDef OID="IT.EC.ECTRT" Name="ECTRT" DataType="text" SASFieldName="ECTRT" Length="200">
                <Description>
                    <TranslatedText xml:lang="en">Name of Treatment</TranslatedText>
                </Description>
            </ItemDef>
            <ItemDef OID="IT.EC.ECDOSE" Name="ECDOSE" DataType="integer" SASFieldName="ECDOSE" Length="20">
                <Description>
                    <TranslatedText xml:lang="en">Dose</TranslatedText>
                </Description>
            </ItemDef>
            <ItemDef OID="IT.EC.ECDOSTXT" Name="ECDOSTXT" DataType="text" SASFieldName="ECDOSTXT" Length="100">
                <Description>
                    <TranslatedText xml:lang="en">Dose Description</TranslatedText>
                </Description>
            </ItemDef>
            <ItemDef OID="IT.EC.ECDOSU" Name="ECDOSU" DataType="text" SASFieldName="ECDOSU" Length="200">
                <Description>
                    <TranslatedText xml:lang="en">Dose Units</TranslatedText>
                </Description>
                <CodeListRef CodeListOID="CL.UNIT"/>
            </ItemDef>
            <ItemDef OID="IT.EC.ECDOSFRM" Name="ECDOSFRM" DataType="text" SASFieldName="ECDOSFRM" Length="200">
                <Description>
                    <TranslatedText xml:lang="en">Dose Form</TranslatedText>
                </Description>
                <CodeListRef CodeListOID="CL.FRM"/>
            </ItemDef>
            <ItemDef OID="IT.EC.ECDOSFRQ" Name="ECDOSFRQ" DataType="text" SASFieldName="ECDOSFRQ" Length="200">
                <Description>
                    <TranslatedText xml:lang="en">Dosing Frequency per Interval</TranslatedText>
                </Description>
                <CodeListRef CodeListOID="CL.FREQ"/>
            </ItemDef>
            <ItemDef OID="IT.EC.ECDOSRGM" Name="ECDOSRGM" DataType="text" SASFieldName="ECDOSRGM"
                     Length="__PLACEHOLDER__">
                <Description>
                    <TranslatedText xml:lang="en">Intended Dose Regimen</TranslatedText>
                </Description>
            </ItemDef>
            <ItemDef OID="IT.EC.ECROUTE" Name="ECROUTE" DataType="text" SASFieldName="ECROUTE" Length="200">
                <Description>
                    <TranslatedText xml:lang="en">Route of Administration</TranslatedText>
                </Description>
                <CodeListRef CodeListOID="CL.ROUTE"/>
            </ItemDef>
            <ItemDef OID="IT.EC.ECLOC" Name="ECLOC" DataType="text" SASFieldName="ECLOC" Length="200">
                <Description>
                    <TranslatedText xml:lang="en">Location of Dose Administration</TranslatedText>
                </Description>
                <CodeListRef CodeListOID="CL.LOC"/>
            </ItemDef>
            <ItemDef OID="IT.EC.ECLAT" Name="ECLAT" DataType="text" SASFieldName="ECLAT" Length="200">
                <Description>
                    <TranslatedText xml:lang="en">Laterality</TranslatedText>
                </Description>
                <CodeListRef CodeListOID="CL.LAT"/>
            </ItemDef>
            <ItemDef OID="IT.EC.ECDIR" Name="ECDIR" DataType="text" SASFieldName="ECDIR" Length="__PLACEHOLDER__">
                <Description>
                    <TranslatedText xml:lang="en">Directionality</TranslatedText>
                </Description>
                <CodeListRef CodeListOID="CL.DIR"/>
            </ItemDef>
            <ItemDef OID="IT.EC.ECSTDTC" Name="ECSTDTC" DataType="datetime" SASFieldName="ECSTDTC">
                <Description>
                    <TranslatedText xml:lang="en">Start Date/Time of Treatment</TranslatedText>
                </Description>
            </ItemDef>
            <ItemDef OID="IT.EC.ECENDTC" Name="ECENDTC" DataType="datetime" SASFieldName="ECENDTC">
                <Description>
                    <TranslatedText xml:lang="en">End Date/Time of Treatment</TranslatedText>
                </Description>
            </ItemDef>
            <ItemDef OID="IT.AE.STUDYID" Name="STUDYID" DataType="text" SASFieldName="STUDYID" Length="__PLACEHOLDER__">
                <Description>
                    <TranslatedText xml:lang="en">Study Identifier</TranslatedText>
                </Description>
            </ItemDef>
            <ItemDef OID="IT.AE.DOMAIN" Name="DOMAIN" DataType="text" SASFieldName="DOMAIN" Length="__PLACEHOLDER__">
                <Description>
                    <TranslatedText xml:lang="en">Domain Abbreviation</TranslatedText>
                </Description>
            </ItemDef>
            <ItemDef OID="IT.AE.USUBJID" Name="USUBJID" DataType="text" SASFieldName="USUBJID" Length="__PLACEHOLDER__">
                <Description>
                    <TranslatedText xml:lang="en">Unique Subject Identifier</TranslatedText>
                </Description>
            </ItemDef>
            <ItemDef OID="IT.AE.AESEQ" Name="AESEQ" DataType="integer" SASFieldName="AESEQ" Length="__PLACEHOLDER__">
                <Description>
                    <TranslatedText xml:lang="en">Sequence Number</TranslatedText>
                </Description>
            </ItemDef>
            <ItemDef OID="IT.AE.AETERM" Name="AETERM" DataType="text" SASFieldName="AETERM" Length="200">
                <Description>
                    <TranslatedText xml:lang="en">Reported Term for the Adverse Event</TranslatedText>
                </Description>
            </ItemDef>
            <ItemDef OID="IT.AE.AELLT" Name="AELLT" DataType="text" SASFieldName="AELLT" Length="__PLACEHOLDER__">
                <Description>
                    <TranslatedText xml:lang="en">Lowest Level Term</TranslatedText>
                </Description>
            </ItemDef>
            <ItemDef OID="IT.AE.AELLTCD" Name="AELLTCD" DataType="integer" SASFieldName="AELLTCD"
                     Length="__PLACEHOLDER__">
                <Description>
                    <TranslatedText xml:lang="en">Lowest Level Term Code</TranslatedText>
                </Description>
            </ItemDef>
            <ItemDef OID="IT.AE.AEDECOD" Name="AEDECOD" DataType="text" SASFieldName="AEDECOD" Length="200">
                <Description>
                    <TranslatedText xml:lang="en">Dictionary-Derived Term</TranslatedText>
                </Description>
            </ItemDef>
            <ItemDef OID="IT.AE.AEPTCD" Name="AEPTCD" DataType="integer" SASFieldName="AEPTCD" Length="__PLACEHOLDER__">
                <Description>
                    <TranslatedText xml:lang="en">Preferred Term Code</TranslatedText>
                </Description>
            </ItemDef>
            <ItemDef OID="IT.AE.AEHLT" Name="AEHLT" DataType="text" SASFieldName="AEHLT" Length="__PLACEHOLDER__">
                <Description>
                    <TranslatedText xml:lang="en">High Level Term</TranslatedText>
                </Description>
            </ItemDef>
            <ItemDef OID="IT.AE.AEHLTCD" Name="AEHLTCD" DataType="integer" SASFieldName="AEHLTCD"
                     Length="__PLACEHOLDER__">
                <Description>
                    <TranslatedText xml:lang="en">High Level Term Code</TranslatedText>
                </Description>
            </ItemDef>
            <ItemDef OID="IT.AE.AEHLGT" Name="AEHLGT" DataType="text" SASFieldName="AEHLGT" Length="__PLACEHOLDER__">
                <Description>
                    <TranslatedText xml:lang="en">High Level Group Term</TranslatedText>
                </Description>
            </ItemDef>
            <ItemDef OID="IT.AE.AEHLGTCD" Name="AEHLGTCD" DataType="integer" SASFieldName="AEHLGTCD"
                     Length="__PLACEHOLDER__">
                <Description>
                    <TranslatedText xml:lang="en">High Level Group Term Code</TranslatedText>
                </Description>
            </ItemDef>
            <ItemDef OID="IT.AE.AECAT" Name="AECAT" DataType="text" SASFieldName="AECAT" Length="200">
                <Description>
                    <TranslatedText xml:lang="en">Category for Adverse Event</TranslatedText>
                </Description>
            </ItemDef>
            <ItemDef OID="IT.AE.AESCAT" Name="AESCAT" DataType="text" SASFieldName="AESCAT" Length="200">
                <Description>
                    <TranslatedText xml:lang="en">Subcategory for Adverse Event</TranslatedText>
                </Description>
            </ItemDef>
            <ItemDef OID="IT.AE.AEPRESP" Name="AEPRESP" DataType="text" SASFieldName="AEPRESP" Length="1">
                <Description>
                    <TranslatedText xml:lang="en">Pre-Specified Adverse Event</TranslatedText>
                </Description>
                <CodeListRef CodeListOID="CL.NY"/>
            </ItemDef>
            <ItemDef OID="IT.AE.AEBODSYS" Name="AEBODSYS" DataType="text" SASFieldName="AEBODSYS"
                     Length="__PLACEHOLDER__">
                <Description>
                    <TranslatedText xml:lang="en">Body System or Organ Class</TranslatedText>
                </Description>
            </ItemDef>
            <ItemDef OID="IT.AE.AEBDSYCD" Name="AEBDSYCD" DataType="integer" SASFieldName="AEBDSYCD"
                     Length="__PLACEHOLDER__">
                <Description>
                    <TranslatedText xml:lang="en">Body System or Organ Class Code</TranslatedText>
                </Description>
            </ItemDef>
            <ItemDef OID="IT.AE.AESOC" Name="AESOC" DataType="text" SASFieldName="AESOC" Length="__PLACEHOLDER__">
                <Description>
                    <TranslatedText xml:lang="en">Primary System Organ Class</TranslatedText>
                </Description>
            </ItemDef>
            <ItemDef OID="IT.AE.AESOCCD" Name="AESOCCD" DataType="integer" SASFieldName="AESOCCD"
                     Length="__PLACEHOLDER__">
                <Description>
                    <TranslatedText xml:lang="en">Primary System Organ Class Code</TranslatedText>
                </Description>
            </ItemDef>
            <ItemDef OID="IT.AE.AELOC" Name="AELOC" DataType="text" SASFieldName="AELOC" Length="200">
                <Description>
                    <TranslatedText xml:lang="en">Location of Event</TranslatedText>
                </Description>
                <CodeListRef CodeListOID="CL.LOC"/>
            </ItemDef>
            <ItemDef OID="IT.AE.AESEV" Name="AESEV" DataType="text" SASFieldName="AESEV" Length="20">
                <Description>
                    <TranslatedText xml:lang="en">Severity/Intensity</TranslatedText>
                </Description>
                <CodeListRef CodeListOID="CL.AESEV"/>
            </ItemDef>
            <ItemDef OID="IT.AE.AESER" Name="AESER" DataType="text" SASFieldName="AESER" Length="1">
                <Description>
                    <TranslatedText xml:lang="en">Serious Event</TranslatedText>
                </Description>
                <CodeListRef CodeListOID="CL.NY"/>
            </ItemDef>
            <ItemDef OID="IT.AE.AEACN" Name="AEACN" DataType="text" SASFieldName="AEACN" Length="200">
                <Description>
                    <TranslatedText xml:lang="en">Action Taken with Study Treatment</TranslatedText>
                </Description>
                <CodeListRef CodeListOID="CL.ACN"/>
            </ItemDef>
            <ItemDef OID="IT.AE.AEACNOTH" Name="AEACNOTH" DataType="text" SASFieldName="AEACNOTH" Length="200">
                <Description>
                    <TranslatedText xml:lang="en">Other Action Taken</TranslatedText>
                </Description>
            </ItemDef>
            <ItemDef OID="IT.AE.AEREL" Name="AEREL" DataType="text" SASFieldName="AEREL" Length="200">
                <Description>
                    <TranslatedText xml:lang="en">Causality</TranslatedText>
                </Description>
            </ItemDef>
            <ItemDef OID="IT.AE.AERELNST" Name="AERELNST" DataType="text" SASFieldName="AERELNST" Length="200">
                <Description>
                    <TranslatedText xml:lang="en">Relationship to Non-Study Treatment</TranslatedText>
                </Description>
            </ItemDef>
            <ItemDef OID="IT.AE.AEPATT" Name="AEPATT" DataType="text" SASFieldName="AEPATT" Length="200">
                <Description>
                    <TranslatedText xml:lang="en">Pattern of Adverse Event</TranslatedText>
                </Description>
            </ItemDef>
            <ItemDef OID="IT.AE.AEOUT" Name="AEOUT" DataType="text" SASFieldName="AEOUT" Length="200">
                <Description>
                    <TranslatedText xml:lang="en">Outcome of Adverse Event</TranslatedText>
                </Description>
                <CodeListRef CodeListOID="CL.OUT"/>
            </ItemDef>
            <ItemDef OID="IT.AE.AESCAN" Name="AESCAN" DataType="text" SASFieldName="AESCAN" Length="1">
                <Description>
                    <TranslatedText xml:lang="en">Involves Cancer</TranslatedText>
                </Description>
                <CodeListRef CodeListOID="CL.NY"/>
            </ItemDef>
            <ItemDef OID="IT.AE.AESCONG" Name="AESCONG" DataType="text" SASFieldName="AESCONG" Length="1">
                <Description>
                    <TranslatedText xml:lang="en">Congenital Anomaly or Birth Defect</TranslatedText>
                </Description>
                <CodeListRef CodeListOID="CL.NY"/>
            </ItemDef>
            <ItemDef OID="IT.AE.AESDISAB" Name="AESDISAB" DataType="text" SASFieldName="AESDISAB" Length="1">
                <Description>
                    <TranslatedText xml:lang="en">Persist or Signif Disability/Incapacity</TranslatedText>
                </Description>
                <CodeListRef CodeListOID="CL.NY"/>
            </ItemDef>
            <ItemDef OID="IT.AE.AESDTH" Name="AESDTH" DataType="text" SASFieldName="AESDTH" Length="1">
                <Description>
                    <TranslatedText xml:lang="en">Results in Death</TranslatedText>
                </Description>
                <CodeListRef CodeListOID="CL.NY"/>
            </ItemDef>
            <ItemDef OID="IT.AE.AESHOSP" Name="AESHOSP" DataType="text" SASFieldName="AESHOSP" Length="1">
                <Description>
                    <TranslatedText xml:lang="en">Requires or Prolongs Hospitalization</TranslatedText>
                </Description>
                <CodeListRef CodeListOID="CL.NY"/>
            </ItemDef>
            <ItemDef OID="IT.AE.AESLIFE" Name="AESLIFE" DataType="text" SASFieldName="AESLIFE" Length="1">
                <Description>
                    <TranslatedText xml:lang="en">Is Life Threatening</TranslatedText>
                </Description>
                <CodeListRef CodeListOID="CL.NY"/>
            </ItemDef>
            <ItemDef OID="IT.AE.AESOD" Name="AESOD" DataType="text" SASFieldName="AESOD" Length="1">
                <Description>
                    <TranslatedText xml:lang="en">Occurred with Overdose</TranslatedText>
                </Description>
                <CodeListRef CodeListOID="CL.NY"/>
            </ItemDef>
            <ItemDef OID="IT.AE.AESMIE" Name="AESMIE" DataType="text" SASFieldName="AESMIE" Length="1">
                <Description>
                    <TranslatedText xml:lang="en">Other Medically Important Serious Event</TranslatedText>
                </Description>
                <CodeListRef CodeListOID="CL.NY"/>
            </ItemDef>
            <ItemDef OID="IT.AE.AECONTRT" Name="AECONTRT" DataType="text" SASFieldName="AECONTRT" Length="1">
                <Description>
                    <TranslatedText xml:lang="en">Concomitant or Additional Trtmnt Given</TranslatedText>
                </Description>
                <CodeListRef CodeListOID="CL.NY"/>
            </ItemDef>
            <ItemDef OID="IT.AE.AETOXGR" Name="AETOXGR" DataType="text" SASFieldName="AETOXGR" Length="1">
                <Description>
                    <TranslatedText xml:lang="en">Standard Toxicity Grade</TranslatedText>
                </Description>
            </ItemDef>
            <ItemDef OID="IT.AE.AESTDTC" Name="AESTDTC" DataType="datetime" SASFieldName="AESTDTC">
                <Description>
                    <TranslatedText xml:lang="en">Start Date/Time of Adverse Event</TranslatedText>
                </Description>
            </ItemDef>
            <ItemDef OID="IT.AE.AEENDTC" Name="AEENDTC" DataType="datetime" SASFieldName="AEENDTC">
                <Description>
                    <TranslatedText xml:lang="en">End Date/Time of Adverse Event</TranslatedText>
                </Description>
            </ItemDef>
            <ItemDef OID="IT.AE.AEENRF" Name="AEENRF" DataType="text" SASFieldName="AEENRF" Length="20">
                <Description>
                    <TranslatedText xml:lang="en">End Relative to Reference Period</TranslatedText>
                </Description>
                <CodeListRef CodeListOID="CL.STENRF"/>
            </ItemDef>
            <ItemDef OID="IT.AE.AEENRTPT" Name="AEENRTPT" DataType="text" SASFieldName="AEENRTPT" Length="20">
                <Description>
                    <TranslatedText xml:lang="en">End Relative to Reference Time Point</TranslatedText>
                </Description>
                <CodeListRef CodeListOID="CL.STENRF"/>
            </ItemDef>
            <ItemDef OID="IT.AE.AEENTPT" Name="AEENTPT" DataType="text" SASFieldName="AEENTPT" Length="20">
                <Description>
                    <TranslatedText xml:lang="en">End Reference Time Point</TranslatedText>
                </Description>
            </ItemDef>
            <ItemDef OID="IT.TS.STUDYID" Name="STUDYID" DataType="text" SASFieldName="STUDYID" Length="__PLACEHOLDER__">
                <Description>
                    <TranslatedText xml:lang="en">Study Identifier</TranslatedText>
                </Description>
            </ItemDef>
            <ItemDef OID="IT.TS.DOMAIN" Name="DOMAIN" DataType="text" SASFieldName="DOMAIN" Length="__PLACEHOLDER__">
                <Description>
                    <TranslatedText xml:lang="en">Domain Abbreviation</TranslatedText>
                </Description>
            </ItemDef>
            <ItemDef OID="IT.TS.TSSEQ" Name="TSSEQ" DataType="integer" SASFieldName="TSSEQ" Length="__PLACEHOLDER__">
                <Description>
                    <TranslatedText xml:lang="en">Sequence Number</TranslatedText>
                </Description>
            </ItemDef>
            <ItemDef OID="IT.TS.TSPARMCD" Name="TSPARMCD" DataType="text" SASFieldName="TSPARMCD"
                     Length="__PLACEHOLDER__">
                <Description>
                    <TranslatedText xml:lang="en">Trial Summary Parameter Short Name</TranslatedText>
                </Description>
                <CodeListRef CodeListOID="CL.TSPARMCD"/>
            </ItemDef>
            <ItemDef OID="IT.TS.TSPARM" Name="TSPARM" DataType="text" SASFieldName="TSPARM" Length="__PLACEHOLDER__">
                <Description>
                    <TranslatedText xml:lang="en">Trial Summary Parameter</TranslatedText>
                </Description>
                <CodeListRef CodeListOID="CL.TSPARM"/>
            </ItemDef>
            <ItemDef OID="IT.TS.TSVAL" Name="TSVAL" DataType="text" SASFieldName="TSVAL" Length="__PLACEHOLDER__">
                <Description>
                    <TranslatedText xml:lang="en">Parameter Value</TranslatedText>
                </Description>
            </ItemDef>
            <ItemDef OID="IT.TS.TSVALCD" Name="TSVALCD" DataType="text" SASFieldName="TSVALCD" Length="__PLACEHOLDER__">
                <Description>
                    <TranslatedText xml:lang="en">Parameter Value Code</TranslatedText>
                </Description>
            </ItemDef>
            <ItemDef OID="IT.TS.TSVCDREF" Name="TSVCDREF" DataType="text" SASFieldName="TSVCDREF"
                     Length="__PLACEHOLDER__">
                <Description>
                    <TranslatedText xml:lang="en">Name of the Reference Terminology</TranslatedText>
                </Description>
                <CodeListRef CodeListOID="CL.DICTNAM"/>
            </ItemDef>
            <ItemDef OID="IT.TS.TSVCDVER" Name="TSVCDVER" DataType="text" SASFieldName="TSVCDVER"
                     Length="__PLACEHOLDER__">
                <Description>
                    <TranslatedText xml:lang="en">Version of the Reference Terminology</TranslatedText>
                </Description>
            </ItemDef>
            <ItemDef OID="IT.TS.TSPARMCD.ADAPT" Name="TSPARMCD" DataType="text" SASFieldName="TSPARMCD" Length="1">
                <CodeListRef CodeListOID="CL.NY"/>
            </ItemDef>
            <ItemDef OID="IT.TS.TSPARMCD.AGEMIN" Name="TSPARMCD" DataType="text" SASFieldName="TSPARMCD" Length="200"/>
            <ItemDef OID="IT.TS.TSPARMCD.AGEMAX" Name="TSPARMCD" DataType="text" SASFieldName="TSPARMCD" Length="200"/>
            <ItemDef OID="IT.TS.TSPARMCD.COMPTRT" Name="TSPARMCD" DataType="text" SASFieldName="TSPARMCD" Length="200"/>
            <ItemDef OID="IT.TS.TSPARMCD.CRMDUR" Name="TSPARMCD" DataType="text" SASFieldName="TSPARMCD" Length="200"/>
            <ItemDef OID="IT.TS.TSPARMCD.DOSE" Name="TSPARMCD" DataType="text" SASFieldName="TSPARMCD" Length="200"/>
            <ItemDef OID="IT.TS.TSPARMCD.DOSFRQ" Name="TSPARMCD" DataType="text" SASFieldName="TSPARMCD" Length="200"/>
            <ItemDef OID="IT.TS.TSPARMCD.DOSU" Name="TSPARMCD" DataType="text" SASFieldName="TSPARMCD" Length="200"/>
            <ItemDef OID="IT.TS.TSPARMCD.INDIC" Name="TSPARMCD" DataType="text" SASFieldName="TSPARMCD" Length="200"/>
            <ItemDef OID="IT.TS.TSPARMCD.INTMODEL" Name="TSPARMCD" DataType="text" SASFieldName="TSPARMCD"
                     Length="200"/>
            <ItemDef OID="IT.TS.TSPARMCD.INTTYPE" Name="TSPARMCD" DataType="text" SASFieldName="TSPARMCD" Length="200"/>
            <ItemDef OID="IT.TS.TSPARMCD.NARMS" Name="TSPARMCD" DataType="text" SASFieldName="TSPARMCD" Length="200"/>
            <ItemDef OID="IT.TS.TSPARMCD.OBJPRIM" Name="TSPARMCD" DataType="text" SASFieldName="TSPARMCD" Length="200"/>
            <ItemDef OID="IT.TS.TSPARMCD.OBJSEC" Name="TSPARMCD" DataType="text" SASFieldName="TSPARMCD" Length="200"/>
            <ItemDef OID="IT.TS.TSPARMCD.OUTMSPRI" Name="TSPARMCD" DataType="text" SASFieldName="TSPARMCD"
                     Length="200"/>
            <ItemDef OID="IT.TS.TSPARMCD.OUTMSSEC" Name="TSPARMCD" DataType="text" SASFieldName="TSPARMCD"
                     Length="200"/>
            <ItemDef OID="IT.TS.TSPARMCD.PLANSUB" Name="TSPARMCD" DataType="text" SASFieldName="TSPARMCD" Length="200"/>
            <ItemDef OID="IT.TS.TSPARMCD.PTRTDUR" Name="TSPARMCD" DataType="text" SASFieldName="TSPARMCD" Length="200"/>
            <ItemDef OID="IT.TS.TSPARMCD.ROUTE" Name="TSPARMCD" DataType="text" SASFieldName="TSPARMCD" Length="200"/>
            <ItemDef OID="IT.TS.TSPARMCD.SEXPOP" Name="TSPARMCD" DataType="text" SASFieldName="TSPARMCD" Length="200"/>
            <ItemDef OID="IT.TS.TSPARMCD.SPONSOR" Name="TSPARMCD" DataType="text" SASFieldName="TSPARMCD" Length="200"/>
            <ItemDef OID="IT.TS.TSPARMCD.STYPE" Name="TSPARMCD" DataType="text" SASFieldName="TSPARMCD" Length="200"/>
            <ItemDef OID="IT.TS.TSPARMCD.TBLIND" Name="TSPARMCD" DataType="text" SASFieldName="TSPARMCD" Length="200"/>
            <ItemDef OID="IT.TS.TSPARMCD.THERAREA" Name="TSPARMCD" DataType="text" SASFieldName="TSPARMCD"
                     Length="200"/>
            <ItemDef OID="IT.TS.TSPARMCD.TINDTP" Name="TSPARMCD" DataType="text" SASFieldName="TSPARMCD" Length="200"/>
            <ItemDef OID="IT.TS.TSPARMCD.TITLE" Name="TSPARMCD" DataType="text" SASFieldName="TSPARMCD" Length="200"/>
            <ItemDef OID="IT.TS.TSPARMCD.TPHASE" Name="TSPARMCD" DataType="text" SASFieldName="TSPARMCD" Length="200"/>
            <ItemDef OID="IT.TS.TSPARMCD.TRT" Name="TSPARMCD" DataType="text" SASFieldName="TSPARMCD" Length="200"/>
            <ItemDef OID="IT.TS.TSPARMCD.TTYPE" Name="TSPARMCD" DataType="text" SASFieldName="TSPARMCD" Length="200"/>
            <ItemDef OID="IT.TA.STUDYID" Name="STUDYID" DataType="text" SASFieldName="STUDYID" Length="__PLACEHOLDER__">
                <Description>
                    <TranslatedText xml:lang="en">Study Identifier</TranslatedText>
                </Description>
            </ItemDef>
            <ItemDef OID="IT.TA.DOMAIN" Name="DOMAIN" DataType="text" SASFieldName="DOMAIN" Length="__PLACEHOLDER__">
                <Description>
                    <TranslatedText xml:lang="en">Domain Abbreviation</TranslatedText>
                </Description>
            </ItemDef>
            <ItemDef OID="IT.TA.ARMCD" Name="ARMCD" DataType="text" SASFieldName="ARMCD" Length="__PLACEHOLDER__">
                <Description>
                    <TranslatedText xml:lang="en">Planned Arm Code</TranslatedText>
                </Description>
                <CodeListRef CodeListOID="CL.ARMCD"/>
            </ItemDef>
            <ItemDef OID="IT.TA.ARM" Name="ARM" DataType="text" SASFieldName="ARM" Length="__PLACEHOLDER__">
                <Description>
                    <TranslatedText xml:lang="en">Description of Planned Arm</TranslatedText>
                </Description>
                <CodeListRef CodeListOID="CL.ARM"/>
            </ItemDef>
            <ItemDef OID="IT.TA.TAETORD" Name="TAETORD" DataType="integer" SASFieldName="TAETORD"
                     Length="__PLACEHOLDER__">
                <Description>
                    <TranslatedText xml:lang="en">Planned Order of Element within Arm</TranslatedText>
                </Description>
            </ItemDef>
            <ItemDef OID="IT.TA.ETCD" Name="ETCD" DataType="text" SASFieldName="ETCD" Length="__PLACEHOLDER__">
                <Description>
                    <TranslatedText xml:lang="en">Element Code</TranslatedText>
                </Description>
                <CodeListRef CodeListOID="CL.ETCD"/>
            </ItemDef>
            <ItemDef OID="IT.TA.ELEMENT" Name="ELEMENT" DataType="text" SASFieldName="ELEMENT" Length="__PLACEHOLDER__">
                <Description>
                    <TranslatedText xml:lang="en">Description of Element</TranslatedText>
                </Description>
                <CodeListRef CodeListOID="CL.ELEMENT"/>
            </ItemDef>
            <ItemDef OID="IT.TA.TABRANCH" Name="TABRANCH" DataType="text" SASFieldName="TABRANCH"
                     Length="__PLACEHOLDER__">
                <Description>
                    <TranslatedText xml:lang="en">Branch</TranslatedText>
                </Description>
            </ItemDef>
            <ItemDef OID="IT.TA.TATRANS" Name="TATRANS" DataType="text" SASFieldName="TATRANS" Length="__PLACEHOLDER__">
                <Description>
                    <TranslatedText xml:lang="en">Transition Rule</TranslatedText>
                </Description>
            </ItemDef>
            <ItemDef OID="IT.TA.EPOCH" Name="EPOCH" DataType="text" SASFieldName="EPOCH" Length="__PLACEHOLDER__">
                <Description>
                    <TranslatedText xml:lang="en">Epoch</TranslatedText>
                </Description>
                <CodeListRef CodeListOID="CL.EPOCH"/>
            </ItemDef>
            <ItemDef OID="IT.TE.STUDYID" Name="STUDYID" DataType="text" SASFieldName="STUDYID" Length="__PLACEHOLDER__">
                <Description>
                    <TranslatedText xml:lang="en">Study Identifier</TranslatedText>
                </Description>
            </ItemDef>
            <ItemDef OID="IT.TE.DOMAIN" Name="DOMAIN" DataType="text" SASFieldName="DOMAIN" Length="__PLACEHOLDER__">
                <Description>
                    <TranslatedText xml:lang="en">Domain Abbreviation</TranslatedText>
                </Description>
            </ItemDef>
            <ItemDef OID="IT.TE.ETCD" Name="ETCD" DataType="text" SASFieldName="ETCD" Length="__PLACEHOLDER__">
                <Description>
                    <TranslatedText xml:lang="en">Element Code</TranslatedText>
                </Description>
                <CodeListRef CodeListOID="CL.ETCD"/>
            </ItemDef>
            <ItemDef OID="IT.TE.ELEMENT" Name="ELEMENT" DataType="text" SASFieldName="ELEMENT" Length="__PLACEHOLDER__">
                <Description>
                    <TranslatedText xml:lang="en">Description of Element</TranslatedText>
                </Description>
                <CodeListRef CodeListOID="CL.ELEMENT"/>
            </ItemDef>
            <ItemDef OID="IT.TE.TESTRL" Name="TESTRL" DataType="text" SASFieldName="TESTRL" Length="__PLACEHOLDER__">
                <Description>
                    <TranslatedText xml:lang="en">Rule for Start of Element</TranslatedText>
                </Description>
            </ItemDef>
            <ItemDef OID="IT.TI.STUDYID" Name="STUDYID" DataType="text" SASFieldName="STUDYID" Length="__PLACEHOLDER__">
                <Description>
                    <TranslatedText xml:lang="en">Study Identifier</TranslatedText>
                </Description>
            </ItemDef>
            <ItemDef OID="IT.TI.DOMAIN" Name="DOMAIN" DataType="text" SASFieldName="DOMAIN" Length="__PLACEHOLDER__">
                <Description>
                    <TranslatedText xml:lang="en">Domain Abbreviation</TranslatedText>
                </Description>
            </ItemDef>
            <ItemDef OID="IT.TI.IETESTCD" Name="IETESTCD" DataType="text" SASFieldName="IETESTCD"
                     Length="__PLACEHOLDER__">
                <Description>
                    <TranslatedText xml:lang="en">Incl/Excl Criterion Short Name</TranslatedText>
                </Description>
                <CodeListRef CodeListOID="CL.IETESTCD"/>
            </ItemDef>
            <ItemDef OID="IT.TI.IETEST" Name="IETEST" DataType="text" SASFieldName="IETEST" Length="__PLACEHOLDER__">
                <Description>
                    <TranslatedText xml:lang="en">Inclusion/Exclusion Criterion</TranslatedText>
                </Description>
                <CodeListRef CodeListOID="CL.IETEST"/>
            </ItemDef>
            <ItemDef OID="IT.TI.IECAT" Name="IECAT" DataType="text" SASFieldName="IECAT" Length="__PLACEHOLDER__">
                <Description>
                    <TranslatedText xml:lang="en">Inclusion/Exclusion Category</TranslatedText>
                </Description>
                <CodeListRef CodeListOID="CL.IECAT"/>
            </ItemDef>
            <ItemDef OID="IT.TV.STUDYID" Name="STUDYID" DataType="text" SASFieldName="STUDYID" Length="__PLACEHOLDER__">
                <Description>
                    <TranslatedText xml:lang="en">Study Identifier</TranslatedText>
                </Description>
            </ItemDef>
            <ItemDef OID="IT.TV.DOMAIN" Name="DOMAIN" DataType="text" SASFieldName="DOMAIN" Length="__PLACEHOLDER__">
                <Description>
                    <TranslatedText xml:lang="en">Domain Abbreviation</TranslatedText>
                </Description>
            </ItemDef>
            <ItemDef OID="IT.TV.VISITNUM" Name="VISITNUM" DataType="integer" SASFieldName="VISITNUM"
                     Length="__PLACEHOLDER__">
                <Description>
                    <TranslatedText xml:lang="en">Visit Number</TranslatedText>
                </Description>
            </ItemDef>
            <ItemDef OID="IT.TV.VISIT" Name="VISIT" DataType="text" SASFieldName="VISIT" Length="__PLACEHOLDER__">
                <Description>
                    <TranslatedText xml:lang="en">Visit Name</TranslatedText>
                </Description>
            </ItemDef>
            <ItemDef OID="IT.TV.VISITDY" Name="VISITDY" DataType="integer" SASFieldName="VISITDY"
                     Length="__PLACEHOLDER__">
                <Description>
                    <TranslatedText xml:lang="en">Planned Study Day of Visit</TranslatedText>
                </Description>
            </ItemDef>
            <ItemDef OID="IT.TV.ARMCD" Name="ARMCD" DataType="text" SASFieldName="ARMCD" Length="__PLACEHOLDER__">
                <Description>
                    <TranslatedText xml:lang="en">Planned Arm Code</TranslatedText>
                </Description>
                <CodeListRef CodeListOID="CL.ARMCD"/>
            </ItemDef>
            <ItemDef OID="IT.TV.ARM" Name="ARM" DataType="text" SASFieldName="ARM" Length="__PLACEHOLDER__">
                <Description>
                    <TranslatedText xml:lang="en">Description of Planned Arm</TranslatedText>
                </Description>
                <CodeListRef CodeListOID="CL.ARM"/>
            </ItemDef>
            <ItemDef OID="IT.TV.TVSTRL" Name="TVSTRL" DataType="text" SASFieldName="TVSTRL" Length="__PLACEHOLDER__">
                <Description>
                    <TranslatedText xml:lang="en">Visit Start Rule</TranslatedText>
                </Description>
            </ItemDef>
            <ItemDef OID="IT.TV.TVENRL" Name="TVENRL" DataType="text" SASFieldName="TVENRL" Length="__PLACEHOLDER__">
                <Description>
                    <TranslatedText xml:lang="en">Visit End Rule</TranslatedText>
                </Description>
            </ItemDef>
            <ItemDef OID="IT.SV.STUDYID" Name="STUDYID" DataType="text" SASFieldName="STUDYID" Length="__PLACEHOLDER__">
                <Description>
                    <TranslatedText xml:lang="en">Study Identifier</TranslatedText>
                </Description>
            </ItemDef>
            <ItemDef OID="IT.SV.DOMAIN" Name="DOMAIN" DataType="text" SASFieldName="DOMAIN" Length="__PLACEHOLDER__">
                <Description>
                    <TranslatedText xml:lang="en">Domain Abbreviation</TranslatedText>
                </Description>
            </ItemDef>
            <ItemDef OID="IT.SV.USUBJID" Name="USUBJID" DataType="text" SASFieldName="USUBJID" Length="__PLACEHOLDER__">
                <Description>
                    <TranslatedText xml:lang="en">Unique Subject Identifier</TranslatedText>
                </Description>
            </ItemDef>
            <ItemDef OID="IT.SV.VISITNUM" Name="VISITNUM" DataType="integer" SASFieldName="VISITNUM"
                     Length="__PLACEHOLDER__">
                <Description>
                    <TranslatedText xml:lang="en">Visit Number</TranslatedText>
                </Description>
            </ItemDef>
            <ItemDef OID="IT.SV.VISIT" Name="VISIT" DataType="text" SASFieldName="VISIT" Length="__PLACEHOLDER__">
                <Description>
                    <TranslatedText xml:lang="en">Visit Name</TranslatedText>
                </Description>
            </ItemDef>
            <ItemDef OID="IT.SV.SVPRESP" Name="SVPRESP" DataType="text" SASFieldName="SVPRESP" Length="__PLACEHOLDER__">
                <Description>
                    <TranslatedText xml:lang="en">Pre-specified</TranslatedText>
                </Description>
                <CodeListRef CodeListOID="CL.NY"/>
            </ItemDef>
            <ItemDef OID="IT.SV.SVOCCUR" Name="SVOCCUR" DataType="text" SASFieldName="SVOCCUR" Length="__PLACEHOLDER__">
                <Description>
                    <TranslatedText xml:lang="en">Occurrence</TranslatedText>
                </Description>
                <CodeListRef CodeListOID="CL.NY"/>
            </ItemDef>
            <ItemDef OID="IT.SV.SVCNTMOD" Name="SVCNTMOD" DataType="text" SASFieldName="SVCNTMOD"
                     Length="__PLACEHOLDER__">
                <Description>
                    <TranslatedText xml:lang="en">Contact Mode</TranslatedText>
                </Description>
                <CodeListRef CodeListOID="CL.CNTMODE"/>
            </ItemDef>
            <ItemDef OID="IT.SV.SVSTDTC" Name="SVSTDTC" DataType="datetime" SASFieldName="SVSTDTC">
                <Description>
                    <TranslatedText xml:lang="en">Start Date/Time of Observation</TranslatedText>
                </Description>
            </ItemDef>
            <ItemDef OID="IT.SV.SVENDTC" Name="SVENDTC" DataType="datetime" SASFieldName="SVENDTC">
                <Description>
                    <TranslatedText xml:lang="en">End Date/Time of Observation</TranslatedText>
                </Description>
            </ItemDef>
            <ItemDef OID="IT.IE.STUDYID" Name="STUDYID" DataType="text" SASFieldName="STUDYID" Length="__PLACEHOLDER__">
                <Description>
                    <TranslatedText xml:lang="en">Study Identifier</TranslatedText>
                </Description>
            </ItemDef>
            <ItemDef OID="IT.IE.DOMAIN" Name="DOMAIN" DataType="text" SASFieldName="DOMAIN" Length="__PLACEHOLDER__">
                <Description>
                    <TranslatedText xml:lang="en">Domain Abbreviation</TranslatedText>
                </Description>
            </ItemDef>
            <ItemDef OID="IT.IE.USUBJID" Name="USUBJID" DataType="text" SASFieldName="USUBJID" Length="__PLACEHOLDER__">
                <Description>
                    <TranslatedText xml:lang="en">Unique Subject Identifier</TranslatedText>
                </Description>
            </ItemDef>
            <ItemDef OID="IT.IE.IESEQ" Name="IESEQ" DataType="integer" SASFieldName="IESEQ" Length="__PLACEHOLDER__">
                <Description>
                    <TranslatedText xml:lang="en">Sequence Number</TranslatedText>
                </Description>
            </ItemDef>
            <ItemDef OID="IT.IE.IETESTCD" Name="IETESTCD" DataType="text" SASFieldName="IETESTCD"
                     Length="__PLACEHOLDER__">
                <Description>
                    <TranslatedText xml:lang="en">Inclusion/Exclusion Criterion Short Name</TranslatedText>
                </Description>
                <CodeListRef CodeListOID="CL.IETESTCD"/>
            </ItemDef>
            <ItemDef OID="IT.IE.IETEST" Name="IETEST" DataType="text" SASFieldName="IETEST" Length="__PLACEHOLDER__">
                <Description>
                    <TranslatedText xml:lang="en">Inclusion/Exclusion Criterion</TranslatedText>
                </Description>
                <CodeListRef CodeListOID="CL.IETEST"/>
            </ItemDef>
            <ItemDef OID="IT.IE.IECAT" Name="IECAT" DataType="text" SASFieldName="IECAT" Length="__PLACEHOLDER__">
                <Description>
                    <TranslatedText xml:lang="en">Inclusion/Exclusion Category</TranslatedText>
                </Description>
                <CodeListRef CodeListOID="CL.IECAT"/>
            </ItemDef>
            <ItemDef OID="IT.IE.IEORRES" Name="IEORRES" DataType="text" SASFieldName="IEORRES" Length="__PLACEHOLDER__">
                <Description>
                    <TranslatedText xml:lang="en">I/E Criterion Original Result</TranslatedText>
                </Description>
                <CodeListRef CodeListOID="CL.NY"/>
            </ItemDef>
            <ItemDef OID="IT.IE.IESTRESC" Name="IESTRESC" DataType="text" SASFieldName="IESTRESC"
                     Length="__PLACEHOLDER__">
                <Description>
                    <TranslatedText xml:lang="en">I/E Criterion Result in Std Format</TranslatedText>
                </Description>
                <CodeListRef CodeListOID="CL.NY"/>
            </ItemDef>
            <ItemDef OID="IT.IE.IEORRES.IN01" Name="IEORRES" DataType="text" SASFieldName="IEORRES" Length="1"/>
            <ItemDef OID="IT.IE.IEORRES.IN02" Name="IEORRES" DataType="text" SASFieldName="IEORRES" Length="1"/>
            <ItemDef OID="IT.IE.IEORRES.IN03" Name="IEORRES" DataType="text" SASFieldName="IEORRES" Length="1"/>
            <ItemDef OID="IT.IE.IEORRES.IN04" Name="IEORRES" DataType="text" SASFieldName="IEORRES" Length="1"/>
            <ItemDef OID="IT.IE.IEORRES.IN05" Name="IEORRES" DataType="text" SASFieldName="IEORRES" Length="1"/>
            <ItemDef OID="IT.IE.IEORRES.IN06" Name="IEORRES" DataType="text" SASFieldName="IEORRES" Length="1"/>
            <ItemDef OID="IT.IE.IEORRES.IN07" Name="IEORRES" DataType="text" SASFieldName="IEORRES" Length="1"/>
            <ItemDef OID="IT.IE.IEORRES.IN08" Name="IEORRES" DataType="text" SASFieldName="IEORRES" Length="1"/>
            <ItemDef OID="IT.IE.IEORRES.EX01" Name="IEORRES" DataType="text" SASFieldName="IEORRES" Length="1"/>
            <ItemDef OID="IT.IE.IEORRES.EX02" Name="IEORRES" DataType="text" SASFieldName="IEORRES" Length="1"/>
            <ItemDef OID="IT.IE.IEORRES.EX03" Name="IEORRES" DataType="text" SASFieldName="IEORRES" Length="1"/>
            <ItemDef OID="IT.IE.IEORRES.EX04" Name="IEORRES" DataType="text" SASFieldName="IEORRES" Length="1"/>
            <ItemDef OID="IT.IE.IEORRES.EX05" Name="IEORRES" DataType="text" SASFieldName="IEORRES" Length="1"/>
            <ItemDef OID="IT.IE.IEORRES.EX06" Name="IEORRES" DataType="text" SASFieldName="IEORRES" Length="1"/>
            <ItemDef OID="IT.IE.IEORRES.EX07" Name="IEORRES" DataType="text" SASFieldName="IEORRES" Length="1"/>
            <ItemDef OID="IT.IE.IEORRES.EX08" Name="IEORRES" DataType="text" SASFieldName="IEORRES" Length="1"/>
            <ItemDef OID="IT.IE.IEORRES.EX09" Name="IEORRES" DataType="text" SASFieldName="IEORRES" Length="1"/>
            <ItemDef OID="IT.IE.IEORRES.EX10" Name="IEORRES" DataType="text" SASFieldName="IEORRES" Length="1"/>
            <ItemDef OID="IT.IE.IEORRES.EX11" Name="IEORRES" DataType="text" SASFieldName="IEORRES" Length="1"/>
            <ItemDef OID="IT.IE.IEORRES.EX12" Name="IEORRES" DataType="text" SASFieldName="IEORRES" Length="1"/>
            <ItemDef OID="IT.IE.IEORRES.EX13" Name="IEORRES" DataType="text" SASFieldName="IEORRES" Length="1"/>
            <ItemDef OID="IT.IE.IEORRES.EX14" Name="IEORRES" DataType="text" SASFieldName="IEORRES" Length="1"/>
            <ItemDef OID="IT.IE.IEORRES.EX15" Name="IEORRES" DataType="text" SASFieldName="IEORRES" Length="1"/>
            <ItemDef OID="IT.IE.IEORRES.EX16" Name="IEORRES" DataType="text" SASFieldName="IEORRES" Length="1"/>
            <ItemDef OID="IT.IE.IEORRES.EX17" Name="IEORRES" DataType="text" SASFieldName="IEORRES" Length="1"/>
            <ItemDef OID="IT.IE.IEORRES.EX18" Name="IEORRES" DataType="text" SASFieldName="IEORRES" Length="1"/>
            <ItemDef OID="IT.IE.IEORRES.EX19" Name="IEORRES" DataType="text" SASFieldName="IEORRES" Length="1"/>
            <ItemDef OID="IT.IE.IEORRES.EX20" Name="IEORRES" DataType="text" SASFieldName="IEORRES" Length="1"/>
            <ItemDef OID="IT.IE.IEORRES.EX21" Name="IEORRES" DataType="text" SASFieldName="IEORRES" Length="1"/>
            <ItemDef OID="IT.IE.IEORRES.EX22" Name="IEORRES" DataType="text" SASFieldName="IEORRES" Length="1"/>
            <ItemDef OID="IT.IE.IEORRES.EX23" Name="IEORRES" DataType="text" SASFieldName="IEORRES" Length="1"/>
            <ItemDef OID="IT.SE.STUDYID" Name="STUDYID" DataType="text" SASFieldName="STUDYID" Length="__PLACEHOLDER__">
                <Description>
                    <TranslatedText xml:lang="en">Study Identifier</TranslatedText>
                </Description>
            </ItemDef>
            <ItemDef OID="IT.SE.DOMAIN" Name="DOMAIN" DataType="text" SASFieldName="DOMAIN" Length="__PLACEHOLDER__">
                <Description>
                    <TranslatedText xml:lang="en">Domain Abbreviation</TranslatedText>
                </Description>
            </ItemDef>
            <ItemDef OID="IT.SE.USUBJID" Name="USUBJID" DataType="text" SASFieldName="USUBJID" Length="__PLACEHOLDER__">
                <Description>
                    <TranslatedText xml:lang="en">Unique Subject Identifier</TranslatedText>
                </Description>
            </ItemDef>
            <ItemDef OID="IT.SE.SESEQ" Name="SESEQ" DataType="integer" SASFieldName="SESEQ" Length="__PLACEHOLDER__">
                <Description>
                    <TranslatedText xml:lang="en">Sequence Number</TranslatedText>
                </Description>
            </ItemDef>
            <ItemDef OID="IT.SE.ETCD" Name="ETCD" DataType="text" SASFieldName="ETCD" Length="__PLACEHOLDER__">
                <Description>
                    <TranslatedText xml:lang="en">Element Code</TranslatedText>
                </Description>
                <CodeListRef CodeListOID="CL.ETCD"/>
            </ItemDef>
            <ItemDef OID="IT.SE.ELEMENT" Name="ELEMENT" DataType="text" SASFieldName="ELEMENT" Length="__PLACEHOLDER__">
                <Description>
                    <TranslatedText xml:lang="en">Description of Element</TranslatedText>
                </Description>
                <CodeListRef CodeListOID="CL.ELEMENT"/>
            </ItemDef>
            <ItemDef OID="IT.SE.EPOCH" Name="EPOCH" DataType="text" SASFieldName="EPOCH" Length="__PLACEHOLDER__">
                <Description>
                    <TranslatedText xml:lang="en">Epoch</TranslatedText>
                </Description>
                <CodeListRef CodeListOID="CL.EPOCH"/>
            </ItemDef>
            <ItemDef OID="IT.SE.SESTDTC" Name="SESTDTC" DataType="datetime" SASFieldName="SESTDTC">
                <Description>
                    <TranslatedText xml:lang="en">Start Date/Time of Element</TranslatedText>
                </Description>
            </ItemDef>
            <ItemDef OID="IT.SE.SEENDTC" Name="SEENDTC" DataType="datetime" SASFieldName="SEENDTC">
                <Description>
                    <TranslatedText xml:lang="en">End Date/Time of Element</TranslatedText>
                </Description>
            </ItemDef>
            <CodeList OID="CL.ARMCD" Name="ARM Code" DataType="text" def:IsNonStandard="Yes">
                <EnumeratedItem CodedValue="Placebo"/>
                <EnumeratedItem CodedValue="Xanomeline Low Dose"/>
                <EnumeratedItem CodedValue="Xanomeline High Dose"/>
            </CodeList>
            <CodeList OID="CL.ARM" Name="ARM" DataType="text" def:IsNonStandard="Yes">
                <EnumeratedItem CodedValue="Placebo"/>
                <EnumeratedItem CodedValue="Xanomeline Low Dose"/>
                <EnumeratedItem CodedValue="Xanomeline High Dose"/>
            </CodeList>
            <CodeList OID="CL.IETEST" Name="Inclusion/Exclusion Test Name" DataType="text" def:IsNonStandard="Yes">
                <EnumeratedItem CodedValue="Age greater than 50"/>
                <EnumeratedItem CodedValue="Diagnosis of Alzheimer's"/>
                <EnumeratedItem CodedValue="MMSE Score"/>
                <EnumeratedItem CodedValue="Hachinski Ischemic Score"/>
                <EnumeratedItem CodedValue="CNS imaging comptaible with Alzheimer's"/>
                <EnumeratedItem CodedValue="Informed consent criteria"/>
                <EnumeratedItem CodedValue="Geographic proximity criteria"/>
                <EnumeratedItem CodedValue="Reliable caregiver criteria"/>
                <EnumeratedItem CodedValue="Previous study criteria"/>
                <EnumeratedItem CodedValue="Other Alzheimer's therapy criteria"/>
                <EnumeratedItem CodedValue="Serious illness criteria"/>
                <EnumeratedItem CodedValue="Serious neurolocal conditions criteria"/>
                <EnumeratedItem CodedValue="Depression criteria"/>
                <EnumeratedItem CodedValue="Schizophrenia, Bipolar, Ethanol or psychoactive abuse criteria"/>
                <EnumeratedItem CodedValue="Syncope criteria"/>
                <EnumeratedItem CodedValue="ECG Criteria"/>
                <EnumeratedItem CodedValue="Cardiovascular criteria"/>
                <EnumeratedItem CodedValue="Gastrointensinal criteria"/>
                <EnumeratedItem CodedValue="Endocrine criteria"/>
                <EnumeratedItem CodedValue="Resporatory criteria"/>
                <EnumeratedItem CodedValue="Genitourinary criteria"/>
                <EnumeratedItem CodedValue="Rheumatologic criteria"/>
                <EnumeratedItem CodedValue="HIV criteria"/>
                <EnumeratedItem CodedValue="Neurosyphilis, Meningitis,Encephalitis criteria"/>
                <EnumeratedItem CodedValue="Malignant disease criteria"/>
                <EnumeratedItem CodedValue="Ability to participate in study criteria"/>
                <EnumeratedItem CodedValue="Laboratory values criteria"/>
                <EnumeratedItem CodedValue="Central laboratory values criteria"/>
                <EnumeratedItem CodedValue="Syphilia criteria"/>
                <EnumeratedItem CodedValue="Hemoglobin criteria"/>
                <EnumeratedItem CodedValue="Medications Criteria"/>
            </CodeList>
            <CodeList OID="CL.IETESTCD" Name="Inclusion/Exclusion Test Code" DataType="text" def:IsNonStandard="Yes">
                <CodeListItem CodedValue="IN01">
                    <Decode>
                        <TranslatedText xml:lang="en">Age greater than 50</TranslatedText>
                    </Decode>
                </CodeListItem>
                <CodeListItem CodedValue="IN02">
                    <Decode>
                        <TranslatedText xml:lang="en">Diagnosis of Alzheimer's</TranslatedText>
                    </Decode>
                </CodeListItem>
                <CodeListItem CodedValue="IN03">
                    <Decode>
                        <TranslatedText xml:lang="en">MMSE Score</TranslatedText>
                    </Decode>
                </CodeListItem>
                <CodeListItem CodedValue="IN04">
                    <Decode>
                        <TranslatedText xml:lang="en">Hachinski Ischemic Score</TranslatedText>
                    </Decode>
                </CodeListItem>
                <CodeListItem CodedValue="IN05">
                    <Decode>
                        <TranslatedText xml:lang="en">CNS imaging comptaible with Alzheimer's</TranslatedText>
                    </Decode>
                </CodeListItem>
                <CodeListItem CodedValue="IN06">
                    <Decode>
                        <TranslatedText xml:lang="en">Informed consent criteria</TranslatedText>
                    </Decode>
                </CodeListItem>
                <CodeListItem CodedValue="IN07">
                    <Decode>
                        <TranslatedText xml:lang="en">Geographic proximity criteria</TranslatedText>
                    </Decode>
                </CodeListItem>
                <CodeListItem CodedValue="IN08">
                    <Decode>
                        <TranslatedText xml:lang="en">Reliable caregiver criteria</TranslatedText>
                    </Decode>
                </CodeListItem>
                <CodeListItem CodedValue="EX01">
                    <Decode>
                        <TranslatedText xml:lang="en">Previous study criteria</TranslatedText>
                    </Decode>
                </CodeListItem>
                <CodeListItem CodedValue="EX02">
                    <Decode>
                        <TranslatedText xml:lang="en">Other Alzheimer's therapy criteria</TranslatedText>
                    </Decode>
                </CodeListItem>
                <CodeListItem CodedValue="EX03">
                    <Decode>
                        <TranslatedText xml:lang="en">Serious illness criteria</TranslatedText>
                    </Decode>
                </CodeListItem>
                <CodeListItem CodedValue="EX04">
                    <Decode>
                        <TranslatedText xml:lang="en">Serious neurolocal conditions criteria</TranslatedText>
                    </Decode>
                </CodeListItem>
                <CodeListItem CodedValue="EX05">
                    <Decode>
                        <TranslatedText xml:lang="en">Depression criteria</TranslatedText>
                    </Decode>
                </CodeListItem>
                <CodeListItem CodedValue="EX06">
                    <Decode>
                        <TranslatedText xml:lang="en">Schizophrenia, Bipolar, Ethanol or psychoactive abuse criteria
                        </TranslatedText>
                    </Decode>
                </CodeListItem>
                <CodeListItem CodedValue="EX07">
                    <Decode>
                        <TranslatedText xml:lang="en">Syncope criteria</TranslatedText>
                    </Decode>
                </CodeListItem>
                <CodeListItem CodedValue="EX08">
                    <Decode>
                        <TranslatedText xml:lang="en">ECG Criteria</TranslatedText>
                    </Decode>
                </CodeListItem>
                <CodeListItem CodedValue="EX09">
                    <Decode>
                        <TranslatedText xml:lang="en">Cardiovascular criteria</TranslatedText>
                    </Decode>
                </CodeListItem>
                <CodeListItem CodedValue="EX10">
                    <Decode>
                        <TranslatedText xml:lang="en">Gastrointensinal criteria</TranslatedText>
                    </Decode>
                </CodeListItem>
                <CodeListItem CodedValue="EX11">
                    <Decode>
                        <TranslatedText xml:lang="en">Endocrine criteria</TranslatedText>
                    </Decode>
                </CodeListItem>
                <CodeListItem CodedValue="EX12">
                    <Decode>
                        <TranslatedText xml:lang="en">Resporatory criteria</TranslatedText>
                    </Decode>
                </CodeListItem>
                <CodeListItem CodedValue="EX13">
                    <Decode>
                        <TranslatedText xml:lang="en">Genitourinary criteria</TranslatedText>
                    </Decode>
                </CodeListItem>
                <CodeListItem CodedValue="EX14">
                    <Decode>
                        <TranslatedText xml:lang="en">Rheumatologic criteria</TranslatedText>
                    </Decode>
                </CodeListItem>
                <CodeListItem CodedValue="EX15">
                    <Decode>
                        <TranslatedText xml:lang="en">HIV criteria</TranslatedText>
                    </Decode>
                </CodeListItem>
                <CodeListItem CodedValue="EX16">
                    <Decode>
                        <TranslatedText xml:lang="en">Neurosyphilis, Meningitis,Encephalitis criteria</TranslatedText>
                    </Decode>
                </CodeListItem>
                <CodeListItem CodedValue="EX17">
                    <Decode>
                        <TranslatedText xml:lang="en">Malignant disease criteria</TranslatedText>
                    </Decode>
                </CodeListItem>
                <CodeListItem CodedValue="EX18">
                    <Decode>
                        <TranslatedText xml:lang="en">Ability to participate in study criteria</TranslatedText>
                    </Decode>
                </CodeListItem>
                <CodeListItem CodedValue="EX19">
                    <Decode>
                        <TranslatedText xml:lang="en">Laboratory values criteria</TranslatedText>
                    </Decode>
                </CodeListItem>
                <CodeListItem CodedValue="EX20">
                    <Decode>
                        <TranslatedText xml:lang="en">Central laboratory values criteria</TranslatedText>
                    </Decode>
                </CodeListItem>
                <CodeListItem CodedValue="EX21">
                    <Decode>
                        <TranslatedText xml:lang="en">Syphilia criteria</TranslatedText>
                    </Decode>
                </CodeListItem>
                <CodeListItem CodedValue="EX22">
                    <Decode>
                        <TranslatedText xml:lang="en">Hemoglobin criteria</TranslatedText>
                    </Decode>
                </CodeListItem>
                <CodeListItem CodedValue="EX23">
                    <Decode>
                        <TranslatedText xml:lang="en">Medications Criteria</TranslatedText>
                    </Decode>
                </CodeListItem>
            </CodeList>
            <CodeList OID="CL.ELEMENT" Name="Description of Element" DataType="text" def:IsNonStandard="Yes">
                <EnumeratedItem CodedValue="Screening"/>
                <EnumeratedItem CodedValue="Placebo"/>
                <EnumeratedItem CodedValue="Follow up"/>
                <EnumeratedItem CodedValue="Low"/>
                <EnumeratedItem CodedValue="High - Start"/>
                <EnumeratedItem CodedValue="High - Middle"/>
                <EnumeratedItem CodedValue="High - End"/>
            </CodeList>
            <CodeList OID="CL.ETCD" Name="Element Code" DataType="text" def:IsNonStandard="Yes">
                <CodeListItem CodedValue="EL1">
                    <Decode>
                        <TranslatedText xml:lang="en">Screening</TranslatedText>
                    </Decode>
                </CodeListItem>
                <CodeListItem CodedValue="EL2">
                    <Decode>
                        <TranslatedText xml:lang="en">Placebo</TranslatedText>
                    </Decode>
                </CodeListItem>
                <CodeListItem CodedValue="EL7">
                    <Decode>
                        <TranslatedText xml:lang="en">Follow up</TranslatedText>
                    </Decode>
                </CodeListItem>
                <CodeListItem CodedValue="EL3">
                    <Decode>
                        <TranslatedText xml:lang="en">Low</TranslatedText>
                    </Decode>
                </CodeListItem>
                <CodeListItem CodedValue="EL4">
                    <Decode>
                        <TranslatedText xml:lang="en">High - Start</TranslatedText>
                    </Decode>
                </CodeListItem>
                <CodeListItem CodedValue="EL5">
                    <Decode>
                        <TranslatedText xml:lang="en">High - Middle</TranslatedText>
                    </Decode>
                </CodeListItem>
                <CodeListItem CodedValue="EL6">
                    <Decode>
                        <TranslatedText xml:lang="en">High - End</TranslatedText>
                    </Decode>
                </CodeListItem>
            </CodeList>
            <CodeList OID="CL.EPOCH" Name="Epoch" DataType="text" def:StandardOID="STD.SDTMCT">
                <EnumeratedItem CodedValue="Screening">
                    <Alias Context="nci:ExtCodeID" Name="C202487"/>
                </EnumeratedItem>
                <EnumeratedItem CodedValue="Treatment 1">
                    <Alias Context="nci:ExtCodeID" Name="C101526"/>
                </EnumeratedItem>
                <EnumeratedItem CodedValue="Treatment 2">
                    <Alias Context="nci:ExtCodeID" Name="C101526"/>
                </EnumeratedItem>
                <EnumeratedItem CodedValue="Treatment 3">
                    <Alias Context="nci:ExtCodeID" Name="C101526"/>
                </EnumeratedItem>
                <EnumeratedItem CodedValue="Follow-Up">
                    <Alias Context="nci:ExtCodeID" Name="C202578"/>
                </EnumeratedItem>
                <Alias Context="nci:ExtCodeID" Name="C99079"/>
            </CodeList>
            <CodeList OID="CL.NCOMPLT" Name="Completion/Reason for Non-Completion" DataType="text"
                      def:StandardOID="STD.SDTMCT">
                <CodeListItem CodedValue="__PLACEHOLDER__">
                    <Decode>
                        <TranslatedText xml:lang="en">__PLACEHOLDER__</TranslatedText>
                    </Decode>
                </CodeListItem>
                <Alias Context="nci:ExtCodeID" Name="C66727"/>
            </CodeList>
            <CodeList OID="CL.DSCAT" Name="Category of Disposition Event" DataType="text" def:StandardOID="STD.SDTMCT">
                <CodeListItem CodedValue="__PLACEHOLDER__">
                    <Decode>
                        <TranslatedText xml:lang="en">__PLACEHOLDER__</TranslatedText>
                    </Decode>
                </CodeListItem>
                <Alias Context="nci:ExtCodeID" Name="C74558"/>
            </CodeList>
            <CodeList OID="CL.DSSCAT" Name="Subcategory for Disposition Event" DataType="text"
                      def:StandardOID="STD.SDTMCT">
                <CodeListItem CodedValue="__PLACEHOLDER__">
                    <Decode>
                        <TranslatedText xml:lang="en">__PLACEHOLDER__</TranslatedText>
                    </Decode>
                </CodeListItem>
                <Alias Context="nci:ExtCodeID" Name="C170443"/>
            </CodeList>
            <CodeList OID="CL.NY" Name="No Yes Response" DataType="text" def:StandardOID="STD.SDTMCT">
                <CodeListItem CodedValue="N">
                    <Decode>
                        <TranslatedText xml:lang="en">No</TranslatedText>
                    </Decode>
                    <Alias Context="nci:ExtCodeID" Name="C49487"/>
                </CodeListItem>
                <CodeListItem CodedValue="Y">
                    <Decode>
                        <TranslatedText xml:lang="en">Yes</TranslatedText>
                    </Decode>
                    <Alias Context="nci:ExtCodeID" Name="C49488"/>
                </CodeListItem>
                <Alias Context="nci:ExtCodeID" Name="C66742"/>
            </CodeList>
            <CodeList OID="CL.AGEU" Name="Age Unit" DataType="text" def:StandardOID="STD.SDTMCT">
                <CodeListItem CodedValue="__PLACEHOLDER__">
                    <Decode>
                        <TranslatedText xml:lang="en">__PLACEHOLDER__</TranslatedText>
                    </Decode>
                </CodeListItem>
                <Alias Context="nci:ExtCodeID" Name="C66781"/>
            </CodeList>
            <CodeList OID="CL.SEX" Name="Sex" DataType="text" def:StandardOID="STD.SDTMCT">
                <CodeListItem CodedValue="F">
                    <Decode>
                        <TranslatedText xml:lang="en">Female</TranslatedText>
                    </Decode>
                    <Alias Context="nci:ExtCodeID" Name="C16576"/>
                </CodeListItem>
                <CodeListItem CodedValue="M">
                    <Decode>
                        <TranslatedText xml:lang="en">Male</TranslatedText>
                    </Decode>
                    <Alias Context="nci:ExtCodeID" Name="C20197"/>
                </CodeListItem>
                <Alias Context="nci:ExtCodeID" Name="C66731"/>
            </CodeList>
            <CodeList OID="CL.RACE" Name="Race" DataType="text" def:StandardOID="STD.SDTMCT">
                <CodeListItem CodedValue="__PLACEHOLDER__">
                    <Decode>
                        <TranslatedText xml:lang="en">__PLACEHOLDER__</TranslatedText>
                    </Decode>
                </CodeListItem>
                <Alias Context="nci:ExtCodeID" Name="C74457"/>
            </CodeList>
            <CodeList OID="CL.ETHNIC" Name="Ethnic Group" DataType="text" def:StandardOID="STD.SDTMCT">
                <CodeListItem CodedValue="__PLACEHOLDER__">
                    <Decode>
                        <TranslatedText xml:lang="en">__PLACEHOLDER__</TranslatedText>
                    </Decode>
                </CodeListItem>
                <Alias Context="nci:ExtCodeID" Name="C66790"/>
            </CodeList>
            <CodeList OID="CL.ARMNULRS" Name="Arm Null Reason" DataType="text" def:StandardOID="STD.SDTMCT">
                <CodeListItem CodedValue="__PLACEHOLDER__">
                    <Decode>
                        <TranslatedText xml:lang="en">__PLACEHOLDER__</TranslatedText>
                    </Decode>
                </CodeListItem>
                <Alias Context="nci:ExtCodeID" Name="C142179"/>
            </CodeList>
            <CodeList OID="CL.SCTESTCD" Name="Subject Characteristic Test Code" DataType="text"
                      def:StandardOID="STD.SDTMCT">
                <CodeListItem CodedValue="EDULEVEL">
                    <Decode>
                        <TranslatedText xml:lang="en">Level of Education Attained</TranslatedText>
                    </Decode>
                    <Alias Context="nci:ExtCodeID" Name="C17953"/>
                </CodeListItem>
                <CodeListItem CodedValue="EDUYRNUM">
                    <Decode>
                        <TranslatedText xml:lang="en">Number of Years of Education</TranslatedText>
                    </Decode>
                    <Alias Context="nci:ExtCodeID" Name="C122393"/>
                </CodeListItem>
                <Alias Context="nci:ExtCodeID" Name="C74559"/>
            </CodeList>
            <CodeList OID="CL.SCTEST" Name="Subject Characteristic Test Name" DataType="text"
                      def:StandardOID="STD.SDTMCT">
                <CodeListItem CodedValue="Level of Education Attained">
                    <Decode>
                        <TranslatedText xml:lang="en">Level of Education Attained</TranslatedText>
                    </Decode>
                    <Alias Context="nci:ExtCodeID" Name="C17953"/>
                </CodeListItem>
                <CodeListItem CodedValue="Number of Years of Education">
                    <Decode>
                        <TranslatedText xml:lang="en">Number of Years of Education</TranslatedText>
                    </Decode>
                    <Alias Context="nci:ExtCodeID" Name="C122393"/>
                </CodeListItem>
                <Alias Context="nci:ExtCodeID" Name="C103330"/>
            </CodeList>
            <CodeList OID="CL.UNIT" Name="Unit" DataType="text" def:StandardOID="STD.SDTMCT">
                <CodeListItem CodedValue="%">
                    <Decode>
                        <TranslatedText xml:lang="en">Percentage</TranslatedText>
                    </Decode>
                    <Alias Context="nci:ExtCodeID" Name="C25613"/>
                </CodeListItem>
                <CodeListItem CodedValue="10^12/L">
                    <Decode>
                        <TranslatedText xml:lang="en">/pL</TranslatedText>
                    </Decode>
                    <Alias Context="nci:ExtCodeID" Name="C67308"/>
                </CodeListItem>
                <CodeListItem CodedValue="10^6/L">
                    <Decode>
                        <TranslatedText xml:lang="en">/mm3</TranslatedText>
                    </Decode>
                    <Alias Context="nci:ExtCodeID" Name="C67452"/>
                </CodeListItem>
                <CodeListItem CodedValue="10^9/L">
                    <Decode>
                        <TranslatedText xml:lang="en">/nL</TranslatedText>
                    </Decode>
                    <Alias Context="nci:ExtCodeID" Name="C67255"/>
                </CodeListItem>
                <CodeListItem CodedValue="CIGAR">
                    <Decode>
                        <TranslatedText xml:lang="en">Cigar Dosing Unit</TranslatedText>
                    </Decode>
                    <Alias Context="nci:ExtCodeID" Name="C116244"/>
                </CodeListItem>
                <CodeListItem CodedValue="CIGARETTE">
                    <Decode>
                        <TranslatedText xml:lang="en">Cigarette Dosing Unit</TranslatedText>
                    </Decode>
                    <Alias Context="nci:ExtCodeID" Name="C116245"/>
                </CodeListItem>
                <CodeListItem CodedValue="DRINK">
                    <Decode>
                        <TranslatedText xml:lang="en">Drink Dosing Unit</TranslatedText>
                    </Decode>
                    <Alias Context="nci:ExtCodeID" Name="C161487"/>
                </CodeListItem>
                <CodeListItem CodedValue="EU">
                    <Decode>
                        <TranslatedText xml:lang="en">Ehrlich Units</TranslatedText>
                    </Decode>
                    <Alias Context="nci:ExtCodeID" Name="C96599"/>
                </CodeListItem>
                <CodeListItem CodedValue="fmol">
                    <Decode>
                        <TranslatedText xml:lang="en">Femtomole</TranslatedText>
                    </Decode>
                    <Alias Context="nci:ExtCodeID" Name="C68854"/>
                </CodeListItem>
                <CodeListItem CodedValue="fraction of 1">
                    <Decode>
                        <TranslatedText xml:lang="en">Proportion of 1</TranslatedText>
                    </Decode>
                    <Alias Context="nci:ExtCodeID" Name="C105484"/>
                </CodeListItem>
                <CodeListItem CodedValue="g">
                    <Decode>
                        <TranslatedText xml:lang="en">Gram</TranslatedText>
                    </Decode>
                    <Alias Context="nci:ExtCodeID" Name="C48155"/>
                </CodeListItem>
                <CodeListItem CodedValue="g/dL">
                    <Decode>
                        <TranslatedText xml:lang="en">g%</TranslatedText>
                    </Decode>
                    <Alias Context="nci:ExtCodeID" Name="C64783"/>
                </CodeListItem>
                <CodeListItem CodedValue="g/L">
                    <Decode>
                        <TranslatedText xml:lang="en">g/L</TranslatedText>
                    </Decode>
                    <Alias Context="nci:ExtCodeID" Name="C42576"/>
                </CodeListItem>
                <CodeListItem CodedValue="GLASS">
                    <Decode>
                        <TranslatedText xml:lang="en">Glass Dosing Unit</TranslatedText>
                    </Decode>
                    <Alias Context="nci:ExtCodeID" Name="C198391"/>
                </CodeListItem>
                <CodeListItem CodedValue="IU/L">
                    <Decode>
                        <TranslatedText xml:lang="en">IE/L</TranslatedText>
                    </Decode>
                    <Alias Context="nci:ExtCodeID" Name="C67376"/>
                </CodeListItem>
                <CodeListItem CodedValue="kg/m2">
                    <Decode>
                        <TranslatedText xml:lang="en">Kilogram per Square Meter</TranslatedText>
                    </Decode>
                    <Alias Context="nci:ExtCodeID" Name="C49671"/>
                </CodeListItem>
                <CodeListItem CodedValue="L">
                    <Decode>
                        <TranslatedText xml:lang="en">Liter</TranslatedText>
                    </Decode>
                    <Alias Context="nci:ExtCodeID" Name="C48505"/>
                </CodeListItem>
                <CodeListItem CodedValue="mEq/dL">
                    <Decode>
                        <TranslatedText xml:lang="en">Milliequivalent per Deciliter</TranslatedText>
                    </Decode>
                    <Alias Context="nci:ExtCodeID" Name="C67473"/>
                </CodeListItem>
                <CodeListItem CodedValue="mEq/L">
                    <Decode>
                        <TranslatedText xml:lang="en">Milliequivalent Per Liter</TranslatedText>
                    </Decode>
                    <Alias Context="nci:ExtCodeID" Name="C67474"/>
                </CodeListItem>
                <CodeListItem CodedValue="mg">
                    <Decode>
                        <TranslatedText xml:lang="en">Milligram</TranslatedText>
                    </Decode>
                    <Alias Context="nci:ExtCodeID" Name="C28253"/>
                </CodeListItem>
                <CodeListItem CodedValue="mg/dL">
                    <Decode>
                        <TranslatedText xml:lang="en">mg%</TranslatedText>
                    </Decode>
                    <Alias Context="nci:ExtCodeID" Name="C67015"/>
                </CodeListItem>
                <CodeListItem CodedValue="mg/L">
                    <Decode>
                        <TranslatedText xml:lang="en">g/m3</TranslatedText>
                    </Decode>
                    <Alias Context="nci:ExtCodeID" Name="C64572"/>
                </CodeListItem>
                <CodeListItem CodedValue="mIU/L">
                    <Decode>
                        <TranslatedText xml:lang="en">mcIU/mL</TranslatedText>
                    </Decode>
                    <Alias Context="nci:ExtCodeID" Name="C67405"/>
                </CodeListItem>
                <CodeListItem CodedValue="mL">
                    <Decode>
                        <TranslatedText xml:lang="en">cc</TranslatedText>
                    </Decode>
                    <Alias Context="nci:ExtCodeID" Name="C28254"/>
                </CodeListItem>
                <CodeListItem CodedValue="mmol/L">
                    <Decode>
                        <TranslatedText xml:lang="en">mcmol/mL</TranslatedText>
                    </Decode>
                    <Alias Context="nci:ExtCodeID" Name="C64387"/>
                </CodeListItem>
                <CodeListItem CodedValue="ms">
                    <Decode>
                        <TranslatedText xml:lang="en">Millisecond</TranslatedText>
                    </Decode>
                    <Alias Context="nci:ExtCodeID" Name="C41140"/>
                </CodeListItem>
                <CodeListItem CodedValue="mU/L">
                    <Decode>
                        <TranslatedText xml:lang="en">uU/mL</TranslatedText>
                    </Decode>
                    <Alias Context="nci:ExtCodeID" Name="C67408"/>
