{
  "datasetJSONCreationDateTime": "2026-04-13T23:41:36.129755+00:00",
  "datasetJSONVersion": "1.1.0",
  "fileOID": "www.cdisc.org/StudyCDISC01_1/1/Define-XML_2.1.0",
  "studyOID": "STDY.www.cdisc.org.CDISC01_1",
  "metaDataVersionOID": "MDV.CDISC01_1.1.SDTMIG.3.1.2.SDTM.1.2_X",
  "itemGroupOID": "IG.DEFINE.VALUE_LEVEL",
  "records": 44,
  "name": "value_level",
  "label": "Value-Level Metadata",
  "columns": [
    {
      "itemOID": "DEFINE.VL.VALUELISTOID",
      "name": "ValueListOID",
      "label": "ValueList OID",
      "dataType": "string",
      "keySequence": 1
    },
    {
      "itemOID": "DEFINE.VL.ITEMOID",
      "name": "ItemOID",
      "label": "Item OID",
      "dataType": "string",
      "keySequence": 2
    },
    {
      "itemOID": "DEFINE.VL.ORDERNUMBER",
      "name": "OrderNumber",
      "label": "Order Number",
      "dataType": "integer"
    },
    {
      "itemOID": "DEFINE.VL.MANDATORY",
      "name": "Mandatory",
      "label": "Mandatory",
      "dataType": "string"
    },
    {
      "itemOID": "DEFINE.VL.METHODOID",
      "name": "MethodOID",
      "label": "Method OID",
      "dataType": "string"
    },
    {
      "itemOID": "DEFINE.VL.WHERECLAUSEOID",
      "name": "WhereClauseOID",
      "label": "WhereClause OID",
      "dataType": "string"
    },
    {
      "itemOID": "DEFINE.VL.NAME",
      "name": "Name",
      "label": "Variable Name",
      "dataType": "string"
    },
    {
      "itemOID": "DEFINE.VL.DATATYPE",
      "name": "DataType",
      "label": "Data Type",
      "dataType": "string"
    },
    {
      "itemOID": "DEFINE.VL.LENGTH",
      "name": "Length",
      "label": "Length",
      "dataType": "integer"
    },
    {
      "itemOID": "DEFINE.VL.SIGNIFICANTDIGITS",
      "name": "SignificantDigits",
      "label": "Significant Digits",
      "dataType": "integer"
    },
    {
      "itemOID": "DEFINE.VL.SASFIELDNAME",
      "name": "SASFieldName",
      "label": "SAS Field Name",
      "dataType": "string"
    },
    {
      "itemOID": "DEFINE.VL.DISPLAYFORMAT",
      "name": "DisplayFormat",
      "label": "Display Format",
      "dataType": "string"
    },
    {
      "itemOID": "DEFINE.VL.COMMENTOID",
      "name": "CommentOID",
      "label": "Comment OID",
      "dataType": "string"
    },
    {
      "itemOID": "DEFINE.VL.DESCRIPTIONTEXT",
      "name": "DescriptionText",
      "label": "Description",
      "dataType": "string"
    },
    {
      "itemOID": "DEFINE.VL.CODELISTOID",
      "name": "CodeListOID",
      "label": "CodeList OID",
      "dataType": "string"
    },
    {
      "itemOID": "DEFINE.VL.ORIGINTYPE",
      "name": "OriginType",
      "label": "Origin Type",
      "dataType": "string"
    },
    {
      "itemOID": "DEFINE.VL.ORIGINSOURCE",
      "name": "OriginSource",
      "label": "Origin Source",
      "dataType": "string"
    }
  ],
  "rows": [
    [
      "VL.LB.LBORRES",
      "IT.LB.LBORRES.SET1.LBSPEC.BLOOD",
      1,
      "No",
      null,
      "WC.LB.LBTESTCD.SET1.LBSPEC.BLOOD",
      "SET1",
      "float",
      3,
      1,
      "SET1",
      null,
      null,
      "Result or Finding in Orig Units - Set 1",
      null,
      "Collected",
      "Vendor"
    ],
    [
      "VL.LB.LBORRES",
      "IT.LB.LBORRES.SET2.LBSPEC.BLOOD",
      2,
      "No",
      null,
      "WC.LB.LBTESTCD.SET2.LBSPEC.BLOOD",
      "SET2",
      "float",
      4,
      2,
      "SET2",
      null,
      null,
      "Result or Finding in Orig Units - Set 2",
      null,
      "Collected",
      "Vendor"
    ],
    [
      "VL.LB.LBORRES",
      "IT.LB.LBORRES.SET3.LBSPEC.URINE",
      3,
      "No",
      null,
      "WC.LB.LBTESTCD.SET3.LBSPEC.URINE",
      "SET3",
      "text",
      8,
      null,
      "SET3",
      null,
      null,
      "Result or Finding in Orig Units Set 3",
      null,
      "Collected",
      "Vendor"
    ],
    [
      "VL.LB.LBORRES",
      "IT.LB.LBORRES.HCT.LBSPEC.BLOOD.VENDOR",
      6,
      "No",
      null,
      "WC.LB.LBTESTCD.HCT.LBSPEC.BLOOD.VENDOR",
      "HCT",
      "float",
      4,
      2,
      "HCT",
      null,
      null,
      "Hematocrit",
      null,
      "Collected",
      "Vendor"
    ],
    [
      "VL.LB.LBORRES",
      "IT.LB.LBORRES.HCT.LBSPEC.BLOOD.CRF",
      7,
      "No",
      null,
      "WC.LB.LBTESTCD.HCT.LBSPEC.BLOOD.CRF",
      "HCT",
      "float",
      4,
      2,
      "HCT",
      null,
      null,
      "Hematocrit",
      null,
      "Collected",
      "Investigator"
    ],
    [
      "VL.LB.LBORRES",
      "IT.LB.LBORRES.PH.LBSPEC.URINE",
      10,
      "No",
      null,
      "WC.LB.LBTESTCD.PH.LBSPEC.URINE",
      "PH",
      "float",
      3,
      2,
      "PH",
      null,
      null,
      "pH",
      null,
      "Collected",
      "Vendor"
    ],
    [
      "VL.LB.LBORRES",
      "IT.LB.LBORRES.VITB12.LBSPEC.SERUM",
      11,
      "No",
      null,
      "WC.LB.LBTESTCD.VITB12.LBSPEC.SERUM",
      "VITB12",
      "integer",
      3,
      null,
      "VITB12",
      null,
      null,
      "Vitamin B12",
      null,
      "Collected",
      "Vendor"
    ],
    [
      "VL.LB.LBORRES",
      "IT.LB.LBORRES.VITB9.LBSPEC.BLOOD",
      12,
      "No",
      null,
      "WC.LB.LBTESTCD.VITB9.LBSPEC.BLOOD",
      "VITB9",
      "float",
      5,
      1,
      "VITB9",
      null,
      null,
      "Vitamin B9",
      null,
      "Collected",
      "Vendor"
    ],
    [
      "VL.SUPPDM.QVAL",
      "IT.SUPPDM.QVAL.RACE1",
      1,
      "No",
      "MT.RACE",
      "WC.SUPPDM.QNAM.RACE1",
      "RACE1",
      "text",
      41,
      null,
      "RACE1",
      null,
      null,
      "Race 1",
      "CL.RACE",
      "Collected",
      "Investigator"
    ],
    [
      "VL.SUPPDM.QVAL",
      "IT.SUPPDM.QVAL.RACE2",
      2,
      "No",
      "MT.RACE",
      "WC.SUPPDM.QNAM.RACE2",
      "RACE2",
      "text",
      41,
      null,
      "RACE2",
      null,
      null,
      "Race 2",
      "CL.RACE",
      "Collected",
      "Investigator"
    ],
    [
      "VL.SUPPDM.QVAL",
      "IT.SUPPDM.QVAL.RACE3",
      3,
      "No",
      "MT.RACE",
      "WC.SUPPDM.QNAM.RACE3",
      "RACE3",
      "text",
      41,
      null,
      "RACE3",
      null,
      null,
      "Race 3",
      "CL.RACE",
      "Collected",
      "Investigator"
    ],
    [
      "VL.SUPPDM.QVAL",
      "IT.SUPPDM.QVAL.RAND",
      5,
      "No",
      null,
      "WC.SUPPDM.QNAM.RAND",
      "RAND",
      "text",
      1,
      null,
      "RAND",
      null,
      null,
      "Randomized Population Flag",
      "CL.NY",
      "Collected",
      "Investigator"
    ],
    [
      "VL.SUPPDM.QVAL",
      "IT.SUPPDM.QVAL.RANDNO",
      6,
      "No",
      null,
      "WC.SUPPDM.QNAM.RANDNO",
      "RANDNO",
      "text",
      4,
      null,
      "RANDNO",
      null,
      null,
      "Randomization Number",
      null,
      "Collected",
      "Investigator"
    ],
    [
      "VL.SUPPDM.QVAL",
      "IT.SUPPDM.QVAL.SAFETY",
      7,
      "No",
      "MT.SAFETY",
      "WC.SUPPDM.QNAM.SAFETY",
      "SAFETY",
      "text",
      1,
      null,
      "SAFETY",
      null,
      null,
      "Safety Population Flag",
      "CL.NY",
      "Derived",
      "Sponsor"
    ],
    [
      "VL.SUPPVS.QVAL",
      "IT.SUPPVS.QVAL.VSCLSIG",
      1,
      "No",
      "MT.CLSIG",
      "WC.SUPPVS.QNAM.VSCLSIG",
      "VSCLSIG",
      "text",
      1,
      null,
      "VSCLSIG",
      null,
      null,
      "Clinically Significant",
      "CL.NY",
      "Derived",
      "Sponsor"
    ],
    [
      "VL.TS.TSVAL",
      "IT.TS.TSVAL.AGEMAX",
      2,
      "No",
      null,
      "WC.TS.TSPARMCD.AGEMAX",
      "AGEMAX",
      "integer",
      2,
      null,
      "AGEMAX",
      null,
      null,
      "Planned Maximum Age of Subjects",
      null,
      "Protocol",
      "Sponsor"
    ],
    [
      "VL.TS.TSVAL",
      "IT.TS.TSVAL.AGEMIN",
      3,
      "No",
      null,
      "WC.TS.TSPARMCD.AGEMIN",
      "AGEMIN",
      "integer",
      2,
      null,
      "AGEMIN",
      null,
      null,
      "Planned Minimum Age of Subjects",
      null,
      "Protocol",
      "Sponsor"
    ],
    [
      "VL.TS.TSVAL",
      "IT.TS.TSVAL.AGEU",
      5,
      "No",
      null,
      "WC.TS.TSPARMCD.AGEU",
      "AGEU",
      "text",
      5,
      null,
      "AGEU",
      null,
      null,
      "Age Unit",
      "CL.AGEU",
      "Protocol",
      "Sponsor"
    ],
    [
      "VL.TS.TSVAL",
      "IT.TS.TSVAL.DOSE",
      6,
      "No",
      null,
      "WC.TS.TSPARMCD.DOSE",
      "DOSE",
      "integer",
      2,
      null,
      "DOSE",
      null,
      null,
      "Dose per Administration",
      null,
      "Protocol",
      "Sponsor"
    ],
    [
      "VL.TS.TSVAL",
      "IT.TS.TSVAL.FCNTRY",
      9,
      "No",
      null,
      "WC.TS.TSPARMCD.FCNTRY",
      "FCNTRY",
      "text",
      3,
      null,
      "FCNTRY",
      null,
      null,
      "Planned Country of Investigational Sites",
      "CL.COUNTRY.STUDY",
      "Protocol",
      "Sponsor"
    ],
    [
      "VL.TS.TSVAL",
      "IT.TS.TSVAL.PLANSUB",
      13,
      "No",
      null,
      "WC.TS.TSPARMCD.PLANSUB",
      "PLANSUB",
      "integer",
      2,
      null,
      "PLANSUB",
      null,
      null,
      "Planned Number of Subjects",
      null,
      "Protocol",
      "Sponsor"
    ],
    [
      "VL.VS.VSORRES",
      "IT.VS.VSORRES.DIABP",
      1,
      "Yes",
      null,
      "WC.VS.VSTESTCD.DIABP",
      "VSORRES1",
      "integer",
      2,
      null,
      "DIABPOR",
      null,
      null,
      "Diastolic Blood Pressure in Orig U",
      null,
      "Collected",
      "Investigator"
    ],
    [
      "VL.VS.VSORRES",
      "IT.VS.VSORRES.FRMSIZE",
      2,
      "No",
      null,
      "WC.VS.VSTESTCD.FRMSIZE",
      "VSORRES2",
      "text",
      6,
      null,
      "FRMSZOR",
      null,
      null,
      "Body Frame Size - Orig",
      "CL.SIZE",
      "Collected",
      "Investigator"
    ],
    [
      "VL.VS.VSORRES",
      "IT.VS.VSORRES.HEIGHT",
      3,
      "Yes",
      null,
      "WC.VS.VSTESTCD.HEIGHT",
      "VSORRES3",
      "float",
      5,
      1,
      "HEIGHTOR",
      "5.1",
      null,
      "Height in Orig U",
      null,
      "Collected",
      "Investigator"
    ],
    [
      "VL.VS.VSORRES",
      "IT.VS.VSORRES.PULSE",
      4,
      "No",
      null,
      "WC.VS.VSTESTCD.PULSE",
      "VSORRES4",
      "integer",
      2,
      null,
      "PULSEOR",
      null,
      null,
      "Pulse Rate in Orig U",
      null,
      "Collected",
      "Investigator"
    ],
    [
      "VL.VS.VSORRES",
      "IT.VS.VSORRES.SYSBP",
      5,
      "Yes",
      null,
      "WC.VS.VSTESTCD.SYSBP",
      "VSORRES5",
      "integer",
      3,
      null,
      "SYSBPOR",
      null,
      null,
      "Systolic Blood Pressure in Orig U",
      null,
      "Collected",
      "Investigator"
    ],
    [
      "VL.VS.VSORRES",
      "IT.VS.VSORRES.WEIGHT",
      6,
      "Yes",
      null,
      "WC.VS.VSTESTCD.WEIGHT",
      "VSORRES6",
      "float",
      4,
      1,
      "WEIGHTOR",
      "5.1",
      null,
      "Weight in Orig U",
      null,
      "Collected",
      "Investigator"
    ],
    [
      "VL.VS.VSSTRESC",
      "IT.VS.VSSTRESC.DIABP",
      1,
      "Yes",
      null,
      "WC.VS.VSTESTCD.DIABP",
      "VSSTRESC1",
      "integer",
      2,
      null,
      "DIABPSC",
      null,
      null,
      "Diastolic Blood Pressure Char in Std U",
      null,
      null,
      null
    ],
    [
      "VL.VS.VSSTRESC",
      "IT.VS.VSSTRESC.FRMSIZE",
      2,
      "No",
      null,
      "WC.VS.VSTESTCD.FRMSIZE",
      "VSSTRESC2",
      "text",
      6,
      null,
      "FRMSZSC",
      null,
      null,
      "Body Frame Size - Std",
      "CL.SIZE",
      null,
      null
    ],
    [
      "VL.VS.VSSTRESC",
      "IT.VS.VSSTRESC.HEIGHT",
      3,
      "Yes",
      null,
      "WC.VS.VSTESTCD.HEIGHT",
      "VSSTRESC3",
      "float",
      5,
      1,
      "HEIGHTSC",
      "5.1",
      null,
      "Height Char in Std U",
      null,
      null,
      null
    ],
    [
      "VL.VS.VSSTRESC",
      "IT.VS.VSSTRESC.PULSE",
      4,
      "No",
      null,
      "WC.VS.VSTESTCD.PULSE",
      "VSSTRESC4",
      "integer",
      2,
      null,
      "PULSESC",
      null,
      null,
      "Pulse Rate Char in Std U",
      null,
      null,
      null
    ],
    [
      "VL.VS.VSSTRESC",
      "IT.VS.VSSTRESC.SYSBP",
      5,
      "Yes",
      null,
      "WC.VS.VSTESTCD.SYSBP",
      "VSSTRESC5",
      "integer",
      3,
      null,
      "SYSBPSC",
      null,
      null,
      "Systolic Blood Pressure Char in Std U",
      null,
      null,
      null
    ],
    [
      "VL.VS.VSSTRESC",
      "IT.VS.VSSTRESC.WEIGHT",
      6,
      "Yes",
      null,
      "WC.VS.VSTESTCD.WEIGHT",
      "VSSTRESC6",
      "float",
      4,
      1,
      "WEIGHTSC",
      "5.1",
      null,
      "Weight Char in Std U",
      null,
      null,
      null
    ],
    [
      "VL.VS.VSSTRESC",
      "IT.VS.VSSTRESC.BMI",
      7,
      "Yes",
      "MT.BMISC",
      "WC.VS.VSTESTCD.BMI",
      "VSSTRESC7",
      "float",
      6,
      1,
      "BMISC",
      "5.1",
      null,
      "BMI (Std U)",
      null,
      null,
      null
    ],
    [
      "VL.VS.VSSTRESN",
      "IT.VS.VSSTRESN.DIABP",
      1,
      "Yes",
      null,
      "WC.VS.VSTESTCD.DIABP",
      "VSSTRESN1",
      "integer",
      2,
      null,
      "DIABPSN",
      null,
      null,
      "Diastolic Blood Pressure Num in Std U",
      null,
      null,
      null
    ],
    [
      "VL.VS.VSSTRESN",
      "IT.VS.VSSTRESN.HEIGHT",
      3,
      "Yes",
      null,
      "WC.VS.VSTESTCD.HEIGHT",
      "VSSTRESN2",
      "float",
      5,
      1,
      "HEIGHTSN",
      "5.1",
      null,
      "Height Num in Std U",
      null,
      null,
      null
    ],
    [
      "VL.VS.VSSTRESN",
      "IT.VS.VSSTRESN.PULSE",
      4,
      "No",
      null,
      "WC.VS.VSTESTCD.PULSE",
      "VSSTRESN3",
      "integer",
      2,
      null,
      "PULSESN",
      null,
      null,
      "Pulse Rate Num in Std U",
      null,
      null,
      null
    ],
    [
      "VL.VS.VSSTRESN",
      "IT.VS.VSSTRESN.SYSBP",
      5,
      "Yes",
      null,
      "WC.VS.VSTESTCD.SYSBP",
      "VSSTRESN4",
      "integer",
      3,
      null,
      "SYSBPSN",
      null,
      null,
      "Systolic Blood Pressure Num in Std U",
      null,
      null,
      null
    ],
    [
      "VL.VS.VSSTRESN",
      "IT.VS.VSSTRESN.WEIGHT",
      6,
      "Yes",
      null,
      "WC.VS.VSTESTCD.WEIGHT",
      "VSSTRESN5",
      "float",
      4,
      1,
      "WEIGHTSN",
      "5.1",
      null,
      "Weight Num in Std U",
      null,
      null,
      null
    ],
    [
      "VL.VS.VSSTRESN",
      "IT.VS.VSSTRESN.BMI",
      7,
      "Yes",
      "MT.BMISN",
      "WC.VS.VSTESTCD.BMI",
      "VSSTRESN6",
      "float",
      6,
      2,
      "BMISN",
      "6.2",
      null,
      "BMI Num in Std U",
      null,
      "Derived",
      "Sponsor"
    ],
    [
      "VL.VS.VSORRESU",
      "IT.VS.VSORRESU.HEIGHT.DM.COUNTRY.CMETRIC",
      1,
      "Yes",
      null,
      "WC.VS.VSTESTCD.HEIGHT.[DM].COUNTRY.CMETRIC",
      "VSORRESU1",
      "text",
      5,
      null,
      "HEIGHTOM",
      null,
      "COM.STUDY.DATA",
      "Height: Original Units MC",
      "CL.UH_MC",
      "Collected",
      "Investigator"
    ],
    [
      "VL.VS.VSORRESU",
      "IT.VS.VSORRESU.HEIGHT.DM.COUNTRY.CNMETRIC",
      2,
      "Yes",
      null,
      "WC.VS.VSTESTCD.HEIGHT.[DM].COUNTRY.CNMETRIC",
      "VSORRESU2",
      "text",
      5,
      null,
      "HEIGHTON",
      null,
      null,
      "Height: Original Units NMC",
      "CL.UH_NMC",
      "Collected",
      "Investigator"
    ],
    [
      "VL.VS.VSORRESU",
      "IT.VS.VSORRESU.WEIGHT.DM.COUNTRY.CMETRIC",
      3,
      "Yes",
      null,
      "WC.VS.VSTESTCD.WEIGHT.[DM].COUNTRY.CMETRIC",
      "VSORRESU3",
      "text",
      4,
      null,
      "WEIGHTOM",
      null,
      "COM.STUDY.DATA",
      "Weight: Original Units MC",
      "CL.UW_MC",
      "Collected",
      "Investigator"
    ],
    [
      "VL.VS.VSORRESU",
      "IT.VS.VSORRESU.WEIGHT.DM.COUNTRY.CNMETRIC",
      4,
      "Yes",
      null,
      "WC.VS.VSTESTCD.WEIGHT.[DM].COUNTRY.CNMETRIC",
      "VSORRESU4",
      "text",
      4,
      null,
      "WEIGHTON",
      null,
      null,
      "Weight: Original Units NMC",
      "CL.UW_NMC",
      "Collected",
      "Investigator"
    ]
  ]
}