{
  "datasetJSONCreationDateTime": "2026-04-13T23:41:36.129755+00:00",
  "datasetJSONVersion": "1.1.0",
  "fileOID": "www.cdisc.org/StudyCDISC01_1/1/Define-XML_2.1.0",
  "studyOID": "STDY.www.cdisc.org.CDISC01_1",
  "metaDataVersionOID": "MDV.CDISC01_1.1.SDTMIG.3.1.2.SDTM.1.2_X",
  "itemGroupOID": "IG.DEFINE.VARIABLES",
  "records": 155,
  "name": "variables",
  "label": "Variable Definitions",
  "columns": [
    {
      "itemOID": "DEFINE.VAR.DATASETOID",
      "name": "DatasetOID",
      "label": "Dataset OID",
      "dataType": "string",
      "keySequence": 1
    },
    {
      "itemOID": "DEFINE.VAR.ITEMOID",
      "name": "ItemOID",
      "label": "Item OID",
      "dataType": "string",
      "keySequence": 2
    },
    {
      "itemOID": "DEFINE.VAR.ORDERNUMBER",
      "name": "OrderNumber",
      "label": "Order Number",
      "dataType": "integer"
    },
    {
      "itemOID": "DEFINE.VAR.MANDATORY",
      "name": "Mandatory",
      "label": "Mandatory",
      "dataType": "string"
    },
    {
      "itemOID": "DEFINE.VAR.KEYSEQUENCE",
      "name": "KeySequence",
      "label": "Key Sequence",
      "dataType": "integer"
    },
    {
      "itemOID": "DEFINE.VAR.METHODOID",
      "name": "MethodOID",
      "label": "Method OID",
      "dataType": "string"
    },
    {
      "itemOID": "DEFINE.VAR.ROLE",
      "name": "Role",
      "label": "Role",
      "dataType": "string"
    },
    {
      "itemOID": "DEFINE.VAR.ROLECODELISTOID",
      "name": "RoleCodeListOID",
      "label": "Role CodeList OID",
      "dataType": "string"
    },
    {
      "itemOID": "DEFINE.VAR.ISNONSTANDARD",
      "name": "IsNonStandard",
      "label": "Is Non-Standard",
      "dataType": "string"
    },
    {
      "itemOID": "DEFINE.VAR.HASNODATA",
      "name": "HasNoData",
      "label": "Has No Data",
      "dataType": "string"
    },
    {
      "itemOID": "DEFINE.VAR.NAME",
      "name": "Name",
      "label": "Variable Name",
      "dataType": "string"
    },
    {
      "itemOID": "DEFINE.VAR.DATATYPE",
      "name": "DataType",
      "label": "Data Type",
      "dataType": "string"
    },
    {
      "itemOID": "DEFINE.VAR.LENGTH",
      "name": "Length",
      "label": "Length",
      "dataType": "integer"
    },
    {
      "itemOID": "DEFINE.VAR.SIGNIFICANTDIGITS",
      "name": "SignificantDigits",
      "label": "Significant Digits",
      "dataType": "integer"
    },
    {
      "itemOID": "DEFINE.VAR.SASFIELDNAME",
      "name": "SASFieldName",
      "label": "SAS Field Name",
      "dataType": "string"
    },
    {
      "itemOID": "DEFINE.VAR.DISPLAYFORMAT",
      "name": "DisplayFormat",
      "label": "Display Format",
      "dataType": "string"
    },
    {
      "itemOID": "DEFINE.VAR.COMMENTOID",
      "name": "CommentOID",
      "label": "Comment OID",
      "dataType": "string"
    },
    {
      "itemOID": "DEFINE.VAR.DESCRIPTIONTEXT",
      "name": "DescriptionText",
      "label": "Description",
      "dataType": "string"
    },
    {
      "itemOID": "DEFINE.VAR.CODELISTOID",
      "name": "CodeListOID",
      "label": "CodeList OID",
      "dataType": "string"
    },
    {
      "itemOID": "DEFINE.VAR.VALUELISTOID",
      "name": "ValueListOID",
      "label": "ValueList OID",
      "dataType": "string"
    },
    {
      "itemOID": "DEFINE.VAR.ORIGINTYPE",
      "name": "OriginType",
      "label": "Origin Type",
      "dataType": "string"
    },
    {
      "itemOID": "DEFINE.VAR.ORIGINSOURCE",
      "name": "OriginSource",
      "label": "Origin Source",
      "dataType": "string"
    }
  ],
  "rows": [
    [
      "IG.TS",
      "IT.STUDYID",
      1,
      "Yes",
      1,
      null,
      null,
      null,
      null,
      null,
      "STUDYID",
      "text",
      7,
      null,
      "STUDYID",
      null,
      null,
      "Study Identifier",
      null,
      null,
      "Protocol",
      "Sponsor"
    ],
    [
      "IG.TS",
      "IT.TS.DOMAIN",
      2,
      "Yes",
      null,
      null,
      null,
      null,
      null,
      null,
      "DOMAIN",
      "text",
      2,
      null,
      "DOMAIN",
      null,
      null,
      "Domain Abbreviation",
      "CL.TS.DOMAIN",
      null,
      "Assigned",
      "Sponsor"
    ],
    [
      "IG.TS",
      "IT.TS.TSSEQ",
      3,
      "Yes",
      3,
      "MT.TSSEQ",
      null,
      null,
      null,
      null,
      "TSSEQ",
      "integer",
      1,
      null,
      "TSSEQ",
      null,
      null,
      "Sequence Number",
      null,
      null,
      "Derived",
      "Sponsor"
    ],
    [
      "IG.TS",
      "IT.TS.TSPARMCD",
      4,
      "Yes",
      2,
      null,
      null,
      null,
      null,
      null,
      "TSPARMCD",
      "text",
      8,
      null,
      "TSPARMCD",
      null,
      null,
      "Trial Summary Parameter Short Name",
      "CL.TSPARMCD",
      null,
      "Assigned",
      "Sponsor"
    ],
    [
      "IG.TS",
      "IT.TS.TSPARM",
      5,
      "Yes",
      null,
      null,
      null,
      null,
      null,
      null,
      "TSPARM",
      "text",
      36,
      null,
      "TSPARM",
      null,
      null,
      "Trial Summary Parameter",
      "CL.TSPARM",
      null,
      "Assigned",
      "Sponsor"
    ],
    [
      "IG.TS",
      "IT.TS.TSVAL",
      6,
      "Yes",
      null,
      null,
      null,
      null,
      null,
      null,
      "TSVAL",
      "text",
      100,
      null,
      "TSVAL",
      null,
      null,
      "Parameter Value",
      null,
      "VL.TS.TSVAL",
      "Protocol",
      "Sponsor"
    ],
    [
      "IG.DI",
      "IT.STUDYID",
      1,
      "Yes",
      1,
      null,
      null,
      null,
      null,
      null,
      "STUDYID",
      "text",
      7,
      null,
      "STUDYID",
      null,
      null,
      "Study Identifier",
      null,
      null,
      "Protocol",
      "Sponsor"
    ],
    [
      "IG.DI",
      "IT.DOMAIN",
      2,
      "Yes",
      null,
      null,
      null,
      null,
      null,
      null,
      "DOMAIN",
      "text",
      2,
      null,
      "DOMAIN",
      null,
      null,
      "Domain Abbreviation",
      "CL.DI.DOMAIN",
      null,
      "Assigned",
      "Sponsor"
    ],
    [
      "IG.DI",
      "IT.SPDEVID",
      3,
      "Yes",
      2,
      null,
      null,
      null,
      null,
      null,
      "SPDEVID",
      "text",
      30,
      null,
      "SPDEVID",
      null,
      null,
      "Sponsor Device Identifier",
      null,
      null,
      "Collected",
      "Vendor"
    ],
    [
      "IG.DI",
      "IT.DISEQ",
      4,
      "No",
      null,
      "MT.SEQ",
      null,
      null,
      null,
      null,
      "DISEQ",
      "integer",
      3,
      null,
      "DISEQ",
      null,
      null,
      "Sequence Number",
      null,
      null,
      "Derived",
      "Sponsor"
    ],
    [
      "IG.DI",
      "IT.DIPARMCD",
      5,
      "Yes",
      3,
      null,
      null,
      null,
      null,
      null,
      "DIPARMCD",
      "text",
      20,
      null,
      "DIPARMCD",
      null,
      null,
      "Device Identifier Element Short Name",
      null,
      null,
      "Assigned",
      "Vendor"
    ],
    [
      "IG.DI",
      "IT.DIPARM",
      6,
      "Yes",
      null,
      null,
      null,
      null,
      null,
      null,
      "DIPARM",
      "text",
      100,
      null,
      "DIPARM",
      null,
      null,
      "Device Identifier  Element Name",
      null,
      null,
      "Assigned",
      "Vendor"
    ],
    [
      "IG.DI",
      "IT.DIVAL",
      7,
      "Yes",
      null,
      null,
      null,
      null,
      null,
      null,
      "DIVAL",
      "text",
      200,
      null,
      "DIVAL",
      null,
      null,
      "Device Identifier Element Value",
      null,
      null,
      "Collected",
      "Vendor"
    ],
    [
      "IG.DM",
      "IT.STUDYID",
      1,
      "Yes",
      1,
      null,
      null,
      null,
      null,
      null,
      "STUDYID",
      "text",
      7,
      null,
      "STUDYID",
      null,
      null,
      "Study Identifier",
      null,
      null,
      "Protocol",
      "Sponsor"
    ],
    [
      "IG.DM",
      "IT.DM.DOMAIN",
      2,
      "Yes",
      null,
      null,
      null,
      null,
      null,
      null,
      "DOMAIN",
      "text",
      2,
      null,
      "DOMAIN",
      null,
      null,
      "Domain Abbreviation",
      "CL.DM.DOMAIN",
      null,
      "Assigned",
      "Sponsor"
    ],
    [
      "IG.DM",
      "IT.USUBJID",
      3,
      "Yes",
      2,
      "MT.USUBJID",
      null,
      null,
      null,
      null,
      "USUBJID",
      "text",
      14,
      null,
      "USUBJID",
      null,
      null,
      "Unique Subject Identifier",
      null,
      null,
      "Derived",
      "Sponsor"
    ],
    [
      "IG.DM",
      "IT.DM.SUBJID",
      4,
      "Yes",
      null,
      null,
      null,
      null,
      null,
      null,
      "SUBJID",
      "text",
      6,
      null,
      "SUBJID",
      null,
      null,
      "Subject Identifier for the Study",
      null,
      null,
      "Collected",
      "Investigator"
    ],
    [
      "IG.DM",
      "IT.DM.RFSTDTC",
      5,
      "No",
      null,
      "MT.RFSTDTC",
      null,
      null,
      null,
      null,
      "RFSTDTC",
      "date",
      null,
      null,
      "RFSTDTC",
      null,
      null,
      "Subject Reference Start Date/Time",
      null,
      null,
      "Derived",
      "Sponsor"
    ],
    [
      "IG.DM",
      "IT.DM.RFENDTC",
      6,
      "No",
      null,
      "MT.RFENDTC",
      null,
      null,
      null,
      null,
      "RFENDTC",
      "date",
      null,
      null,
      "RFENDTC",
      null,
      null,
      "Subject Reference End Date/Time",
      null,
      null,
      "Derived",
      "Sponsor"
    ],
    [
      "IG.DM",
      "IT.DM.SITEID",
      7,
      "Yes",
      null,
      null,
      null,
      null,
      null,
      null,
      "SITEID",
      "text",
      3,
      null,
      "SITEID",
      null,
      null,
      "Study Site Identifier",
      null,
      null,
      "Collected",
      "Investigator"
    ],
    [
      "IG.DM",
      "IT.DM.BRTHDTC",
      8,
      "No",
      null,
      null,
      null,
      null,
      null,
      null,
      "BRTHDTC",
      "date",
      null,
      null,
      "BRTHDTC",
      null,
      null,
      "Date/Time of Birth",
      null,
      null,
      "Collected",
      "Investigator"
    ],
    [
      "IG.DM",
      "IT.DM.AGE",
      9,
      "Yes",
      null,
      "MT.AGE",
      null,
      null,
      null,
      null,
      "AGE",
      "integer",
      2,
      null,
      "AGE",
      null,
      null,
      "Age",
      null,
      null,
      "Derived",
      "Sponsor"
    ],
    [
      "IG.DM",
      "IT.DM.AGEU",
      10,
      "No",
      null,
      null,
      null,
      null,
      null,
      null,
      "AGEU",
      "text",
      5,
      null,
      "AGEU",
      null,
      "COM.AGEU",
      "Age Units",
      null,
      null,
      "Assigned",
      "Sponsor"
    ],
    [
      "IG.DM",
      "IT.DM.SEX",
      11,
      "Yes",
      null,
      null,
      null,
      null,
      null,
      null,
      "SEX",
      "text",
      16,
      null,
      "SEX",
      null,
      null,
      "Sex",
      "CL.SEX",
      null,
      "Collected",
      "Investigator"
    ],
    [
      "IG.DM",
      "IT.DM.RACE",
      12,
      "No",
      null,
      "MT.RACE",
      null,
      null,
      null,
      null,
      "RACE",
      "text",
      41,
      null,
      "RACE",
      null,
      "COM.RACE",
      "Race",
      "CL.RACE",
      null,
      "Collected",
      "Investigator"
    ],
    [
      "IG.DM",
      "IT.DM.ETHNIC",
      13,
      "Yes",
      null,
      null,
      null,
      null,
      null,
      null,
      "ETHNIC",
      "text",
      22,
      null,
      "ETHNIC",
      null,
      null,
      "Ethnicity",
      "CL.ETHNIC",
      null,
      "Collected",
      "Investigator"
    ],
    [
      "IG.DM",
      "IT.DM.ARMCD",
      14,
      "Yes",
      null,
      null,
      null,
      null,
      null,
      null,
      "ARMCD",
      "text",
      8,
      null,
      "ARMCD",
      null,
      "COM.ARMCD",
      "Planned Arm Code",
      "CL.ARMCD",
      null,
      "Assigned",
      "Sponsor"
    ],
    [
      "IG.DM",
      "IT.DM.ARM",
      15,
      "Yes",
      null,
      null,
      null,
      null,
      null,
      null,
      "ARM",
      "text",
      20,
      null,
      "ARM",
      null,
      "COM.ARM",
      "Description of Planned Arm",
      "CL.ARM",
      null,
      "Assigned",
      "Sponsor"
    ],
    [
      "IG.DM",
      "IT.DM.COUNTRY",
      16,
      "Yes",
      null,
      null,
      null,
      null,
      null,
      null,
      "COUNTRY",
      "text",
      3,
      null,
      "COUNTRY",
      null,
      null,
      "Country",
      "CL.ISO.COUNTRY",
      null,
      "Assigned",
      "Sponsor"
    ],
    [
      "IG.EC",
      "IT.STUDYID",
      1,
      "Yes",
      1,
      null,
      null,
      null,
      null,
      null,
      "STUDYID",
      "text",
      7,
      null,
      "STUDYID",
      null,
      null,
      "Study Identifier",
      null,
      null,
      "Protocol",
      "Sponsor"
    ],
    [
      "IG.EC",
      "IT.EC.DOMAIN",
      2,
      "Yes",
      null,
      null,
      null,
      null,
      null,
      null,
      "DOMAIN",
      "text",
      2,
      null,
      "DOMAIN",
      null,
      null,
      "Domain Abbreviation",
      "CL.EC.DOMAIN",
      null,
      "Assigned",
      "Sponsor"
    ],
    [
      "IG.EC",
      "IT.USUBJID",
      3,
      "Yes",
      2,
      "MT.USUBJID",
      null,
      null,
      null,
      null,
      "USUBJID",
      "text",
      14,
      null,
      "USUBJID",
      null,
      null,
      "Unique Subject Identifier",
      null,
      null,
      "Derived",
      "Sponsor"
    ],
    [
      "IG.EC",
      "IT.EC.EXSEQ",
      4,
      "Yes",
      null,
      "MT.SEQ",
      null,
      null,
      null,
      null,
      "ECSEQ",
      "integer",
      1,
      null,
      "ECSEQ",
      null,
      null,
      "Sequence Number",
      null,
      null,
      "Derived",
      "Sponsor"
    ],
    [
      "IG.EC",
      "IT.EC.EXTRT",
      5,
      "Yes",
      5,
      "MT.EXTRT",
      null,
      null,
      null,
      null,
      "ECTRT",
      "text",
      20,
      null,
      "ECTRT",
      null,
      null,
      "Name of Actual Treatment",
      "CL.EXTRT",
      null,
      "Derived",
      "Sponsor"
    ],
    [
      "IG.EC",
      "IT.EC.EXDOSE",
      6,
      "No",
      6,
      null,
      null,
      null,
      null,
      null,
      "ECDOSE",
      "integer",
      2,
      null,
      "ECDOSE",
      null,
      null,
      "Dose per Administration",
      null,
      null,
      "Derived",
      "Sponsor"
    ],
    [
      "IG.EC",
      "IT.EC.EXDOSU",
      7,
      "No",
      null,
      null,
      null,
      null,
      null,
      null,
      "ECDOSU",
      "text",
      2,
      null,
      "ECDOSU",
      null,
      null,
      "Dose Units",
      null,
      null,
      "Derived",
      "Sponsor"
    ],
    [
      "IG.EC",
      "IT.EC.EXDOSFRM",
      8,
      "No",
      null,
      null,
      null,
      null,
      null,
      null,
      "ECDOSFRM",
      "text",
      7,
      null,
      "ECDOSFRM",
      null,
      null,
      "Dose Form",
      "CL.FRM",
      null,
      "Collected",
      "Investigator"
    ],
    [
      "IG.EC",
      "IT.EC.EXSTDTC",
      9,
      "No",
      3,
      null,
      null,
      null,
      null,
      null,
      "ECSTDTC",
      "date",
      null,
      null,
      "ECSTDTC",
      null,
      null,
      "Start Date/Time of Treatment",
      null,
      null,
      "Collected",
      "Investigator"
    ],
    [
      "IG.EC",
      "IT.EC.EXENDTC",
      10,
      "No",
      4,
      null,
      null,
      null,
      null,
      null,
      "ECENDTC",
      "date",
      null,
      null,
      "ECENDTC",
      null,
      null,
      "End Date/Time of Treatment",
      null,
      null,
      "Collected",
      "Investigator"
    ],
    [
      "IG.EC",
      "IT.EC.EXSTDY",
      11,
      "No",
      null,
      "MT.EXSTDY",
      null,
      null,
      null,
      null,
      "ECSTDY",
      "integer",
      2,
      null,
      "ECSTDY",
      null,
      null,
      "Study Day of Start of Treatment",
      null,
      null,
      "Derived",
      "Sponsor"
    ],
    [
      "IG.EC",
      "IT.EC.EXENDY",
      12,
      "No",
      null,
      "MT.ECENDY",
      null,
      null,
      null,
      null,
      "ECENDY",
      "integer",
      2,
      null,
      "ECENDY",
      null,
      null,
      "Study Day of End of Treatment",
      null,
      null,
      "Derived",
      "Sponsor"
    ],
    [
      "IG.EX",
      "IT.STUDYID",
      1,
      "Yes",
      1,
      null,
      null,
      null,
      null,
      null,
      "STUDYID",
      "text",
      7,
      null,
      "STUDYID",
      null,
      null,
      "Study Identifier",
      null,
      null,
      "Protocol",
      "Sponsor"
    ],
    [
      "IG.EX",
      "IT.EX.DOMAIN",
      2,
      "Yes",
      null,
      null,
      null,
      null,
      null,
      null,
      "DOMAIN",
      "text",
      2,
      null,
      "DOMAIN",
      null,
      null,
      "Domain Abbreviation",
      "CL.EX.DOMAIN",
      null,
      "Assigned",
      "Sponsor"
    ],
    [
      "IG.EX",
      "IT.USUBJID",
      3,
      "Yes",
      2,
      "MT.USUBJID",
      null,
      null,
      null,
      null,
      "USUBJID",
      "text",
      14,
      null,
      "USUBJID",
      null,
      null,
      "Unique Subject Identifier",
      null,
      null,
      "Derived",
      "Sponsor"
    ],
    [
      "IG.EX",
      "IT.EX.EXSEQ",
      4,
      "Yes",
      null,
      "MT.SEQ",
      null,
      null,
      null,
      null,
      "EXSEQ",
      "integer",
      1,
      null,
      "EXSEQ",
      null,
      null,
      "Sequence Number",
      null,
      null,
      "Derived",
      "Sponsor"
    ],
    [
      "IG.EX",
      "IT.EX.EXTRT",
      5,
      "Yes",
      5,
      "MT.EXTRT",
      null,
      null,
      null,
      null,
      "EXTRT",
      "text",
      20,
      null,
      "EXTRT",
      null,
      null,
      "Name of Actual Treatment",
      "CL.EXTRT",
      null,
      "Derived",
      "Sponsor"
    ],
    [
      "IG.EX",
      "IT.EX.EXDOSE",
      6,
      "No",
      6,
      "MT.EXDOSE",
      null,
      null,
      null,
      null,
      "EXDOSE",
      "integer",
      2,
      null,
      "EXDOSE",
      null,
      null,
      "Dose per Administration",
      null,
      null,
      "Derived",
      "Sponsor"
    ],
    [
      "IG.EX",
      "IT.EX.EXDOSU",
      7,
      "No",
      null,
      "MT.EXDOSU",
      null,
      null,
      null,
      null,
      "EXDOSU",
      "text",
      2,
      null,
      "EXDOSU",
      null,
      null,
      "Dose Units",
      null,
      null,
      "Derived",
      "Sponsor"
    ],
    [
      "IG.EX",
      "IT.EX.EXDOSFRM",
      8,
      "No",
      null,
      null,
      null,
      null,
      null,
      null,
      "EXDOSFRM",
      "text",
      7,
      null,
      "EXDOSFRM",
      null,
      null,
      "Dose Form",
      "CL.FRM",
      null,
      "Predecessor",
      "Sponsor"
    ],
    [
      "IG.EX",
      "IT.EX.EXSTDTC",
      9,
      "No",
      3,
      null,
      null,
      null,
      null,
      null,
      "EXSTDTC",
      "date",
      null,
      null,
      "EXSTDTC",
      null,
      null,
      "Start Date/Time of Treatment",
      null,
      null,
      "Predecessor",
      "Sponsor"
    ],
    [
      "IG.EX",
      "IT.EX.EXENDTC",
      10,
      "No",
      4,
      null,
      null,
      null,
      null,
      null,
      "EXENDTC",
      "date",
      null,
      null,
      "EXENDTC",
      null,
      null,
      "End Date/Time of Treatment",
      null,
      null,
      "Predecessor",
      "Sponsor"
    ],
    [
      "IG.EX",
      "IT.EX.EXSTDY",
      11,
      "No",
      null,
      "MT.EXSTDY",
      null,
      null,
      null,
      null,
      "EXSTDY",
      "integer",
      2,
      null,
      "EXSTDY",
      null,
      null,
      "Study Day of Start of Treatment",
      null,
      null,
      "Derived",
      "Sponsor"
    ],
    [
      "IG.EX",
      "IT.EX.EXENDY",
      12,
      "No",
      null,
      "MT.EXENDY",
      null,
      null,
      null,
      null,
      "EXENDY",
      "integer",
      2,
      null,
      "EXENDY",
      null,
      null,
      "Study Day of End of Treatment",
      null,
      null,
      "Derived",
      "Sponsor"
    ],
    [
      "IG.LB",
      "IT.STUDYID",
      1,
      "Yes",
      1,
      null,
      null,
      null,
      null,
      null,
      "STUDYID",
      "text",
      7,
      null,
      "STUDYID",
      null,
      null,
      "Study Identifier",
      null,
      null,
      "Protocol",
      "Sponsor"
    ],
    [
      "IG.LB",
      "IT.LB.DOMAIN",
      2,
      "Yes",
      null,
      null,
      null,
      null,
      null,
      null,
      "DOMAIN",
      "text",
      2,
      null,
      "DOMAIN",
      null,
      null,
      "Domain Abbreviation",
      "CL.LB.DOMAIN",
      null,
      "Assigned",
      "Sponsor"
    ],
    [
      "IG.LB",
      "IT.USUBJID",
      3,
      "Yes",
      2,
      "MT.USUBJID",
      null,
      null,
      null,
      null,
      "USUBJID",
      "text",
      14,
      null,
      "USUBJID",
      null,
      null,
      "Unique Subject Identifier",
      null,
      null,
      "Derived",
      "Sponsor"
    ],
    [
      "IG.LB",
      "IT.LB.LBSEQ",
      4,
      "Yes",
      null,
      "MT.SEQ",
      null,
      null,
      null,
      null,
      "LBSEQ",
      "integer",
      2,
      null,
      "LBSEQ",
      null,
      null,
      "Sequence Number",
      null,
      null,
      "Derived",
      "Sponsor"
    ],
    [
      "IG.LB",
      "IT.LB.LBREFID",
      5,
      "No",
      null,
      null,
      null,
      null,
      null,
      null,
      "LBREFID",
      "text",
      7,
      null,
      "LBREFID",
      null,
      "COM.LBREFID",
      "Specimen ID",
      null,
      null,
      "Collected",
      "Vendor"
    ],
    [
      "IG.LB",
      "IT.LB.LBTESTCD",
      6,
      "Yes",
      5,
      null,
      null,
      null,
      null,
      null,
      "LBTESTCD",
      "text",
      7,
      null,
      "LBTESTCD",
      null,
      null,
      "Lab Test or Examination Short Name",
      "CL.LBTESTCD",
      null,
      "Assigned",
      "Sponsor"
    ],
    [
      "IG.LB",
      "IT.LB.LBTEST",
      7,
      "Yes",
      null,
      null,
      null,
      null,
      null,
      null,
      "LBTEST",
      "text",
      22,
      null,
      "LBTEST",
      null,
      null,
      "Lab Test or Examination Name",
      "CL.LBTEST",
      null,
      "Collected",
      "Vendor"
    ],
    [
      "IG.LB",
      "IT.LB.LBCAT",
      8,
      "No",
      3,
      null,
      null,
      null,
      null,
      null,
      "LBCAT",
      "text",
      10,
      null,
      "LBCAT",
      null,
      null,
      "Category for Lab Test",
      null,
      null,
      "Collected",
      "Vendor"
    ],
    [
      "IG.LB",
      "IT.LB.LBORRES",
      9,
      "No",
      null,
      null,
      null,
      null,
      null,
      null,
      "LBORRES",
      "text",
      8,
      null,
      "LBORRES",
      null,
      "COM.LBORRES",
      "Result or Finding in Original Units",
      null,
      "VL.LB.LBORRES",
      null,
      null
    ],
    [
      "IG.LB",
      "IT.LB.LBORRESU",
      10,
      "No",
      null,
      null,
      null,
      null,
      null,
      null,
      "LBORRESU",
      "text",
      7,
      null,
      "LBORRESU",
      null,
      "COM.LBORRESU(Repeated)",
      "Original Units",
      "CL.LBRESU",
      null,
      "Collected",
      "Vendor"
    ],
    [
      "IG.LB",
      "IT.LB.LBORNRLO",
      11,
      "No",
      null,
      null,
      null,
      null,
      null,
      null,
      "LBORNRLO",
      "float",
      6,
      2,
      "LBORNRLO",
      "6.1",
      null,
      "Reference Range Lower Limit in Orig Unit",
      null,
      null,
      "Collected",
      "Vendor"
    ],
    [
      "IG.LB",
      "IT.LB.LBORNRHI",
      12,
      "No",
      null,
      null,
      null,
      null,
      null,
      null,
      "LBORNRHI",
      "float",
      6,
      2,
      "LBORNRHI",
      "6.1",
      null,
      "Reference Range Upper Limit in Orig Unit",
      null,
      null,
      "Collected",
      "Vendor"
    ],
    [
      "IG.LB",
      "IT.LB.LBSTRESC",
      13,
      "No",
      null,
      null,
      null,
      null,
      null,
      null,
      "LBSTRESC",
      "text",
      8,
      null,
      "LBSTRESC",
      null,
      "COM.LBORRESU(Repeated)",
      "Character Result/Finding in Std Format",
      null,
      null,
      "Collected",
      "Vendor"
    ],
    [
      "IG.LB",
      "IT.LB.LBSTRESN",
      14,
      "No",
      null,
      null,
      null,
      null,
      null,
      null,
      "LBSTRESN",
      "float",
      5,
      2,
      "LBSTRESN",
      "5.2",
      null,
      "Numeric Result/Finding in Standard Units",
      null,
      null,
      "Collected",
      "Vendor"
    ],
    [
      "IG.LB",
      "IT.LB.LBSTRESU",
      15,
      "No",
      null,
      null,
      null,
      null,
      null,
      null,
      "LBSTRESU",
      "text",
      7,
      null,
      "LBSTRESU",
      null,
      "COM.LBORRESU(Repeated)",
      "Standard Units",
      null,
      null,
      "Collected",
      "Vendor"
    ],
    [
      "IG.LB",
      "IT.LB.LBSTNRLO",
      16,
      "No",
      null,
      null,
      null,
      null,
      null,
      null,
      "LBSTNRLO",
      "float",
      4,
      2,
      "LBSTNRLO",
      "4.2",
      null,
      "Reference Range Lower Limit-Std Units",
      null,
      null,
      "Collected",
      "Vendor"
    ],
    [
      "IG.LB",
      "IT.LB.LBSTNRHI",
      17,
      "No",
      null,
      null,
      null,
      null,
      null,
      null,
      "LBSTNRHI",
      "float",
      4,
      2,
      "LBSTNRHI",
      "4.2",
      null,
      "Reference Range Upper Limit-Std Units",
      null,
      null,
      "Collected",
      "Vendor"
    ],
    [
      "IG.LB",
      "IT.LB.LBSTNRC",
      18,
      "No",
      null,
      null,
      null,
      null,
      null,
      null,
      "LBSTNRC",
      "text",
      19,
      null,
      "LBSTNRC",
      null,
      null,
      "Reference Range for Char Rslt-Std Units",
      null,
      null,
      "Collected",
      "Vendor"
    ],
    [
      "IG.LB",
      "IT.LB.LBNRIND",
      19,
      "No",
      null,
      "MT.LBNRIND",
      null,
      null,
      null,
      null,
      "LBNRIND",
      "text",
      20,
      null,
      "LBNRIND",
      null,
      "COM.LBNRIND",
      "Reference Range Indicator",
      "CL.NRIND",
      null,
      "Assigned",
      "Vendor"
    ],
    [
      "IG.LB",
      "IT.LB.LBNAM",
      20,
      "No",
      8,
      null,
      null,
      null,
      null,
      null,
      "LBNAM",
      "text",
      20,
      null,
      "LBNAM",
      null,
      null,
      "Vendor Name",
      null,
      null,
      "Collected",
      "Vendor"
    ],
    [
      "IG.LB",
      "IT.LB.LBSPEC",
      21,
      "Yes",
      null,
      null,
      null,
      null,
      null,
      null,
      "LBSPEC",
      "text",
      5,
      null,
      "LBSPEC",
      null,
      null,
      "Specimen Type",
      "CL.SPECTYPE",
      null,
      "Collected",
      "Vendor"
    ],
    [
      "IG.LB",
      "IT.LB.LBMETHOD",
      22,
      "No",
      4,
      null,
      null,
      null,
      null,
      null,
      "LBMETHOD",
      "text",
      8,
      null,
      "LBMETHOD",
      null,
      null,
      "Method of Test or Examination",
      "CL.METHOD",
      null,
      "Collected",
      "Vendor"
    ],
    [
      "IG.LB",
      "IT.LB.LBBLFL",
      23,
      "No",
      null,
      "MT.LBBLFL",
      null,
      null,
      null,
      null,
      "LBBLFL",
      "text",
      1,
      null,
      "LBBLFL",
      null,
      null,
      "Baseline Flag",
      "CL.NY",
      null,
      "Derived",
      "Sponsor"
    ],
    [
      "IG.LB",
      "IT.LB.LBFAST",
      24,
      "No",
      null,
      null,
      null,
      null,
      null,
      null,
      "LBFAST",
      "text",
      1,
      null,
      "LBFAST",
      null,
      null,
      "Fasting Status",
      "CL.NY",
      null,
      "Collected",
      "Vendor"
    ],
    [
      "IG.LB",
      "IT.LB.VISITNUM",
      25,
      "No",
      7,
      null,
      null,
      null,
      null,
      null,
      "VISITNUM",
      "integer",
      2,
      null,
      "VISITNUM",
      null,
      null,
      "Visit Number",
      null,
      null,
      "Assigned",
      "Sponsor"
    ],
    [
      "IG.LB",
      "IT.LB.VISIT",
      26,
      "No",
      null,
      null,
      null,
      null,
      null,
      null,
      "VISIT",
      "text",
      7,
      null,
      "VISIT",
      null,
      null,
      "Visit Name",
      null,
      null,
      "Collected",
      "Vendor"
    ],
    [
      "IG.LB",
      "IT.LB.VISITDY",
      27,
      "No",
      null,
      null,
      null,
      null,
      null,
      null,
      "VISITDY",
      "integer",
      3,
      null,
      "VISITDY",
      null,
      null,
      "Planned Study Day of Visit",
      null,
      null,
      "Protocol",
      "Sponsor"
    ],
    [
      "IG.LB",
      "IT.LB.LBDTC",
      28,
      "No",
      6,
      null,
      null,
      null,
      null,
      null,
      "LBDTC",
      "datetime",
      null,
      null,
      "LBDTC",
      null,
      null,
      "Date/Time of Specimen Collection",
      null,
      null,
      "Collected",
      "Vendor"
    ],
    [
      "IG.LB",
      "IT.LB.LBDY",
      29,
      "No",
      null,
      "MT.LBDY",
      null,
      null,
      null,
      null,
      "LBDY",
      "integer",
      3,
      null,
      "LBDY",
      null,
      null,
      "Study Day of Specimen Collection",
      null,
      null,
      "Derived",
      "Sponsor"
    ],
    [
      "IG.VS",
      "IT.STUDYID",
      1,
      "Yes",
      1,
      null,
      null,
      null,
      null,
      null,
      "STUDYID",
      "text",
      7,
      null,
      "STUDYID",
      null,
      null,
      "Study Identifier",
      null,
      null,
      "Protocol",
      "Sponsor"
    ],
    [
      "IG.VS",
      "IT.VS.DOMAIN",
      2,
      "Yes",
      null,
      null,
      null,
      null,
      null,
      null,
      "DOMAIN",
      "text",
      2,
      null,
      "DOMAIN",
      null,
      null,
      "Domain Abbreviation",
      "CL.VS.DOMAIN",
      null,
      "Assigned",
      "Sponsor"
    ],
    [
      "IG.VS",
      "IT.USUBJID",
      3,
      "Yes",
      2,
      "MT.USUBJID",
      null,
      null,
      null,
      null,
      "USUBJID",
      "text",
      14,
      null,
      "USUBJID",
      null,
      null,
      "Unique Subject Identifier",
      null,
      null,
      "Derived",
      "Sponsor"
    ],
    [
      "IG.VS",
      "IT.VS.VSSEQ",
      4,
      "Yes",
      null,
      "MT.SEQ",
      null,
      null,
      null,
      null,
      "VSSEQ",
      "integer",
      2,
      null,
      "VSSEQ",
      null,
      null,
      "Sequence Number",
      null,
      null,
      "Derived",
      "Sponsor"
    ],
    [
      "IG.VS",
      "IT.VS.VSTESTCD",
      5,
      "Yes",
      3,
      null,
      null,
      null,
      null,
      null,
      "VSTESTCD",
      "text",
      20,
      null,
      "VSTESTCD",
      null,
      null,
      "Vital Signs Test Short Name",
      "CL.VSTESTCD",
      null,
      "Assigned",
      "Sponsor"
    ],
    [
      "IG.VS",
      "IT.VS.VSTEST",
      6,
      "Yes",
      null,
      null,
      null,
      null,
      null,
      null,
      "VSTEST",
      "text",
      24,
      null,
      "VSTEST",
      null,
      null,
      "Vital Signs Test Name",
      "CL.VSTEST",
      null,
      "Collected",
      "Investigator"
    ],
    [
      "IG.VS",
      "IT.VS.VSPOS",
      7,
      "No",
      6,
      null,
      null,
      null,
      null,
      null,
      "VSPOS",
      "text",
      7,
      null,
      "VSPOS",
      null,
      null,
      "Vital Signs Position of Subject",
      null,
      null,
      "Collected",
      "Investigator"
    ],
    [
      "IG.VS",
      "IT.VS.VSORRES",
      8,
      "No",
      null,
      null,
      null,
      null,
      null,
      null,
      "VSORRES",
      "text",
      30,
      null,
      "VSORRES",
      null,
      null,
      "Result or Finding in Original Units",
      null,
      "VL.VS.VSORRES",
      "Collected",
      "Investigator"
    ],
    [
      "IG.VS",
      "IT.VS.VSORRESU",
      9,
      "No",
      null,
      null,
      null,
      null,
      null,
      null,
      "VSORRESU",
      "text",
      20,
      null,
      "VSORRESU",
      null,
      null,
      "Original Units",
      null,
      "VL.VS.VSORRESU",
      "Collected",
      "Investigator"
    ],
    [
      "IG.VS",
      "IT.VS.VSSTRESC",
      10,
      "Yes",
      null,
      "MT.VSSTRESC",
      null,
      null,
      null,
      null,
      "VSSTRESC",
      "text",
      6,
      null,
      "VSSTRESC",
      null,
      "COM.VSSTRESC",
      "Character Result/Finding in Std Format",
      null,
      "VL.VS.VSSTRESC",
      "Derived",
      "Sponsor"
    ],
    [
      "IG.VS",
      "IT.VS.VSSTRESN",
      11,
      "No",
      null,
      "MT.VSSTRESN",
      null,
      null,
      null,
      null,
      "VSSTRESN",
      "float",
      6,
      2,
      "VSSTRESN",
      "6.2",
      "COM.VSSTRESN",
      "Numeric Result/Finding in Standard Units",
      null,
      "VL.VS.VSSTRESN",
      "Derived",
      "Sponsor"
    ],
    [
      "IG.VS",
      "IT.VS.VSSTRESU",
      12,
      "No",
      null,
      null,
      null,
      null,
      null,
      null,
      "VSSTRESU",
      "text",
      9,
      null,
      "VSSTRESU",
      null,
      "COM.VSSTRESU",
      "Standard Units",
      "CL.VSRESU",
      null,
      "Assigned",
      "Sponsor"
    ],
    [
      "IG.VS",
      "IT.VS.VSBLFL",
      13,
      "No",
      null,
      "MT.VSBLFL",
      null,
      null,
      null,
      null,
      "VSBLFL",
      "text",
      1,
      null,
      "VSBLFL",
      null,
      null,
      "Baseline Flag",
      "CL.NY",
      null,
      "Derived",
      "Sponsor"
    ],
    [
      "IG.VS",
      "IT.VS.VISITNUM",
      14,
      "No",
      5,
      null,
      null,
      null,
      null,
      null,
      "VISITNUM",
      "integer",
      2,
      null,
      "VISITNUM",
      "Z2.",
      "COM.VS.VISITNUM",
      "Visit Number",
      null,
      null,
      "Assigned",
      "Sponsor"
    ],
    [
      "IG.VS",
      "IT.VS.VISIT",
      15,
      "No",
      null,
      null,
      null,
      null,
      null,
      null,
      "VISIT",
      "text",
      8,
      null,
      "VISIT",
      null,
      null,
      "Visit Name",
      null,
      null,
      "Assigned",
      "Sponsor"
    ],
    [
      "IG.VS",
      "IT.VS.VISITDY",
      16,
      "No",
      null,
      null,
      null,
      null,
      null,
      null,
      "VISITDY",
      "integer",
      3,
      null,
      "VISITDY",
      null,
      null,
      "Planned Study Day of Visit",
      null,
      null,
      "Protocol",
      "Sponsor"
    ],
    [
      "IG.VS",
      "IT.VS.VSDTC",
      17,
      "No",
      4,
      null,
      null,
      null,
      null,
      null,
      "VSDTC",
      "date",
      null,
      null,
      "VSDTC",
      null,
      null,
      "Date/Time of Measurements",
      null,
      null,
      "Collected",
      "Investigator"
    ],
    [
      "IG.VS",
      "IT.VS.VSDY",
      18,
      "No",
      null,
      "MT.VSDY",
      null,
      null,
      null,
      null,
      "VSDY",
      "integer",
      3,
      null,
      "VSDY",
      null,
      null,
      "Study Day of Vital Signs",
      null,
      null,
      "Derived",
      "Sponsor"
    ],
    [
      "IG.XS",
      "IT.STUDYID",
      1,
      "Yes",
      1,
      null,
      null,
      null,
      null,
      null,
      "STUDYID",
      "text",
      7,
      null,
      "STUDYID",
      null,
      null,
      "Study Identifier",
      null,
      null,
      "Protocol",
      "Sponsor"
    ],
    [
      "IG.XS",
      "IT.XS.DOMAIN",
      2,
      "Yes",
      null,
      null,
      null,
      null,
      null,
      null,
      "DOMAIN",
      "text",
      2,
      null,
      "DOMAIN",
      null,
      null,
      "Domain Abbreviation",
      "CL.VS.DOMAIN",
      null,
      "Assigned",
      "Sponsor"
    ],
    [
      "IG.XS",
      "IT.USUBJID",
      3,
      "Yes",
      2,
      "MT.USUBJID",
      null,
      null,
      null,
      null,
      "USUBJID",
      "text",
      14,
      null,
      "USUBJID",
      null,
      null,
      "Unique Subject Identifier",
      null,
      null,
      "Derived",
      "Sponsor"
    ],
    [
      "IG.XS",
      "IT.SPDEVID",
      4,
      "Yes",
      null,
      null,
      null,
      null,
      null,
      null,
      "SPDEVID",
      "text",
      30,
      null,
      "SPDEVID",
      null,
      null,
      "Sponsor Device Identifier",
      null,
      null,
      "Collected",
      "Vendor"
    ],
    [
      "IG.XS",
      "IT.XS.XSSEQ",
      5,
      "Yes",
      null,
      "MT.SEQ",
      null,
      null,
      null,
      null,
      "XSSEQ",
      "integer",
      2,
      null,
      "XSSEQ",
      null,
      null,
      "Sequence Number",
      null,
      null,
      "Derived",
      "Sponsor"
    ],
    [
      "IG.XS",
      "IT.XS.XSTESTCD",
      6,
      "Yes",
      3,
      null,
      null,
      null,
      null,
      null,
      "XSTESTCD",
      "text",
      20,
      null,
      "XSTESTCD",
      null,
      null,
      "S Findings Test Short Name",
      "CL.XSTESTCD",
      null,
      "Assigned",
      "Sponsor"
    ],
    [
      "IG.XS",
      "IT.XS.XSTEST",
      8,
      "Yes",
      null,
      null,
      null,
      null,
      null,
      null,
      "XSTEST",
      "text",
      24,
      null,
      "XSTEST",
      null,
      null,
      "S Findings Test Name",
      "CL.XSTEST",
      null,
      "Collected",
      "Vendor"
    ],
    [
      "IG.XS",
      "IT.XS.XSORRES",
      9,
      "No",
      null,
      null,
      null,
      null,
      null,
      null,
      "XSORRES",
      "text",
      30,
      null,
      "XSORRES",
      null,
      null,
      "Result or Finding in Original Units",
      null,
      null,
      "Collected",
      "Vendor"
    ],
    [
      "IG.XS",
      "IT.XS.XSORRESU",
      10,
      "No",
      null,
      null,
      null,
      null,
      null,
      "Yes",
      "XSORRESU",
      "text",
      20,
      null,
      "XSORRESU",
      null,
      "COM.RESU",
      "Original Units",
      "CL.XSRESU",
      null,
      "Collected",
      "Vendor"
    ],
    [
      "IG.XS",
      "IT.XS.XSSTRESC",
      11,
      "Yes",
      null,
      "MT.XSSTRESC",
      null,
      null,
      null,
      null,
      "XSSTRESC",
      "text",
      30,
      null,
      "XSSTRESC",
      null,
      null,
      "Character Result/Finding in Std Format",
      null,
      null,
      "Derived",
      "Sponsor"
    ],
    [
      "IG.XS",
      "IT.XS.XSSTRESN",
      12,
      "No",
      null,
      "MT.XSSTRESN",
      null,
      null,
      null,
      null,
      "XSSTRESN",
      "float",
      5,
      1,
      "XSSTRESN",
      "5.1",
      null,
      "Numeric Result/Finding in Standard Units",
      null,
      null,
      "Derived",
      "Sponsor"
    ],
    [
      "IG.XS",
      "IT.XS.XSSTRESU",
      13,
      "No",
      null,
      null,
      null,
      null,
      null,
      "Yes",
      "XSSTRESU",
      "text",
      9,
      null,
      "XSSTRESU",
      null,
      "COM.RESU",
      "Standard Units",
      "CL.XSRESU",
      null,
      "Assigned",
      "Sponsor"
    ],
    [
      "IG.XS",
      "IT.XS.XSBLFL",
      14,
      "No",
      null,
      "MT.XSBLFL",
      null,
      null,
      null,
      null,
      "XSBLFL",
      "text",
      1,
      null,
      "XSBLFL",
      null,
      null,
      "Baseline Flag",
      "CL.NY",
      null,
      "Derived",
      "Sponsor"
    ],
    [
      "IG.XS",
      "IT.XS.VISITNUM",
      15,
      "No",
      5,
      null,
      null,
      null,
      null,
      null,
      "VISITNUM",
      "integer",
      2,
      null,
      "VISITNUM",
      "Z2.",
      null,
      "Visit Number",
      null,
      null,
      "Assigned",
      "Sponsor"
    ],
    [
      "IG.XS",
      "IT.XS.VISIT",
      16,
      "No",
      null,
      null,
      null,
      null,
      null,
      null,
      "VISIT",
      "text",
      8,
      null,
      "VISIT",
      null,
      null,
      "Visit Name",
      null,
      null,
      "Assigned",
      "Sponsor"
    ],
    [
      "IG.XS",
      "IT.XS.VISITDY",
      17,
      "No",
      null,
      null,
      null,
      null,
      null,
      null,
      "VISITDY",
      "integer",
      3,
      null,
      "VISITDY",
      null,
      null,
      "Planned Study Day of Visit",
      null,
      null,
      "Protocol",
      "Sponsor"
    ],
    [
      "IG.XS",
      "IT.XS.XSDTC",
      18,
      "No",
      4,
      null,
      null,
      null,
      null,
      null,
      "XSDTC",
      "date",
      null,
      null,
      "XSDTC",
      null,
      null,
      "Date/Time of Measurements",
      null,
      null,
      "Collected",
      "Vendor"
    ],
    [
      "IG.XS",
      "IT.XS.XSDY",
      19,
      "No",
      null,
      "MT.XSDY",
      null,
      null,
      null,
      null,
      "XSDY",
      "integer",
      3,
      null,
      "XSDY",
      null,
      null,
      "Study Day of Vital Signs",
      null,
      null,
      "Derived",
      "Sponsor"
    ],
    [
      "IG.XX",
      "IT.STUDYID",
      1,
      "Yes",
      1,
      null,
      null,
      null,
      null,
      null,
      "STUDYID",
      "text",
      7,
      null,
      "STUDYID",
      null,
      null,
      "Study Identifier",
      null,
      null,
      "Protocol",
      "Sponsor"
    ],
    [
      "IG.XX",
      "IT.XX.DOMAIN",
      2,
      "Yes",
      null,
      null,
      null,
      null,
      null,
      null,
      "DOMAIN",
      "text",
      2,
      null,
      "DOMAIN",
      null,
      null,
      "Domain Abbreviation",
      "CL.VS.DOMAIN",
      null,
      "Assigned",
      "Sponsor"
    ],
    [
      "IG.XX",
      "IT.USUBJID",
      3,
      "Yes",
      2,
      "MT.USUBJID",
      null,
      null,
      null,
      null,
      "USUBJID",
      "text",
      14,
      null,
      "USUBJID",
      null,
      null,
      "Unique Subject Identifier",
      null,
      null,
      "Derived",
      "Sponsor"
    ],
    [
      "IG.XX",
      "IT.XX.XXSEQ",
      4,
      "Yes",
      null,
      "MT.SEQ",
      null,
      null,
      null,
      null,
      "XXSEQ",
      "integer",
      2,
      null,
      "XXSEQ",
      null,
      null,
      "Sequence Number",
      null,
      null,
      "Derived",
      "Sponsor"
    ],
    [
      "IG.XX",
      "IT.XX.XXTESTCD",
      5,
      "Yes",
      3,
      null,
      null,
      null,
      null,
      null,
      "XXTESTCD",
      "text",
      20,
      null,
      "XXTESTCD",
      null,
      null,
      "X FindingsTest Short Name",
      "CL.XXTESTCD",
      null,
      "Assigned",
      "Sponsor"
    ],
    [
      "IG.XX",
      "IT.XX.XXTEST",
      6,
      "Yes",
      null,
      null,
      null,
      null,
      null,
      null,
      "XXTEST",
      "text",
      24,
      null,
      "XXTEST",
      null,
      null,
      "X Findings Test Name",
      "CL.XXTEST",
      null,
      "Collected",
      "Vendor"
    ],
    [
      "IG.XX",
      "IT.XX.XXORRES",
      8,
      "No",
      null,
      null,
      null,
      null,
      null,
      null,
      "XXORRES",
      "text",
      30,
      null,
      "XXORRES",
      null,
      null,
      "Result or Finding in Original Units",
      null,
      null,
      "Collected",
      "Vendor"
    ],
    [
      "IG.XX",
      "IT.XX.XXORRESU",
      9,
      "No",
      null,
      null,
      null,
      null,
      null,
      null,
      "XXORRESU",
      "text",
      20,
      null,
      "XXORRESU",
      null,
      "COM.RESU",
      "Original Units",
      "CL.XXRESU",
      null,
      "Collected",
      "Vendor"
    ],
    [
      "IG.XX",
      "IT.XX.XXSTRESC",
      10,
      "Yes",
      null,
      "MT.XXSTRESC",
      null,
      null,
      null,
      null,
      "XXSTRESC",
      "text",
      30,
      null,
      "XXSTRESC",
      null,
      null,
      "Character Result/Finding in Std Format",
      null,
      null,
      "Derived",
      "Sponsor"
    ],
    [
      "IG.XX",
      "IT.XX.XXSTRESN",
      11,
      "No",
      null,
      "MT.XXSTRESN",
      null,
      null,
      null,
      null,
      "XXSTRESN",
      "float",
      5,
      1,
      "XXSTRESN",
      "5.1",
      null,
      "Numeric Result/Finding in Standard Units",
      null,
      null,
      "Derived",
      "Sponsor"
    ],
    [
      "IG.XX",
      "IT.XX.XXSTRESU",
      12,
      "No",
      null,
      null,
      null,
      null,
      null,
      null,
      "XXSTRESU",
      "text",
      9,
      null,
      "XXSTRESU",
      null,
      "COM.RESU",
      "Standard Units",
      "CL.XXRESU",
      null,
      "Assigned",
      "Sponsor"
    ],
    [
      "IG.XX",
      "IT.XX.XXBLFL",
      13,
      "No",
      null,
      "MT.XXBLFL",
      null,
      null,
      null,
      null,
      "XXBLFL",
      "text",
      1,
      null,
      "XXBLFL",
      null,
      null,
      "Baseline Flag",
      "CL.NY",
      null,
      "Derived",
      "Sponsor"
    ],
    [
      "IG.XX",
      "IT.XX.VISITNUM",
      14,
      "No",
      5,
      null,
      null,
      null,
      null,
      null,
      "VISITNUM",
      "integer",
      2,
      null,
      "VISITNUM",
      "Z2.",
      null,
      "Visit Number",
      null,
      null,
      "Assigned",
      "Sponsor"
    ],
    [
      "IG.XX",
      "IT.XX.VISIT",
      15,
      "No",
      null,
      null,
      null,
      null,
      null,
      null,
      "VISIT",
      "text",
      8,
      null,
      "VISIT",
      null,
      null,
      "Visit Name",
      null,
      null,
      "Assigned",
      "Sponsor"
    ],
    [
      "IG.XX",
      "IT.XX.VISITDY",
      16,
      "No",
      null,
      null,
      null,
      null,
      null,
      null,
      "VISITDY",
      "integer",
      3,
      null,
      "VISITDY",
      null,
      null,
      "Planned Study Day of Visit",
      null,
      null,
      "Protocol",
      "Sponsor"
    ],
    [
      "IG.XX",
      "IT.XX.XXDTC",
      17,
      "No",
      4,
      null,
      null,
      null,
      null,
      null,
      "XXDTC",
      "date",
      null,
      null,
      "XXDTC",
      null,
      null,
      "Date/Time of Measurements",
      null,
      null,
      "Collected",
      "Vendor"
    ],
    [
      "IG.XX",
      "IT.XX.XXDY",
      18,
      "No",
      null,
      "MT.XXDY",
      null,
      null,
      null,
      null,
      "XXDY",
      "integer",
      3,
      null,
      "XXDY",
      null,
      null,
      "Study Day of Vital Signs",
      null,
      null,
      "Derived",
      "Sponsor"
    ],
    [
      "IG.SUPPDM",
      "IT.STUDYID",
      1,
      "Yes",
      1,
      null,
      null,
      null,
      null,
      null,
      "STUDYID",
      "text",
      7,
      null,
      "STUDYID",
      null,
      null,
      "Study Identifier",
      null,
      null,
      "Protocol",
      "Sponsor"
    ],
    [
      "IG.SUPPDM",
      "IT.RDOMAIN",
      2,
      "Yes",
      2,
      "MT.RDOMAIN",
      null,
      null,
      null,
      null,
      "RDOMAIN",
      "text",
      2,
      null,
      "RDOMAIN",
      null,
      null,
      "Related Domain Abbreviation",
      null,
      null,
      "Derived",
      "Sponsor"
    ],
    [
      "IG.SUPPDM",
      "IT.USUBJID",
      3,
      "Yes",
      3,
      "MT.USUBJID",
      null,
      null,
      null,
      null,
      "USUBJID",
      "text",
      14,
      null,
      "USUBJID",
      null,
      null,
      "Unique Subject Identifier",
      null,
      null,
      "Derived",
      "Sponsor"
    ],
    [
      "IG.SUPPDM",
      "IT.SUPPDM.IDVAR",
      4,
      "No",
      4,
      null,
      null,
      null,
      null,
      null,
      "IDVAR",
      "text",
      1,
      null,
      "IDVAR",
      null,
      "COM.IDVAR",
      "Identifying Variable",
      null,
      null,
      "Assigned",
      "Sponsor"
    ],
    [
      "IG.SUPPDM",
      "IT.SUPPDM.IDVARVAL",
      5,
      "No",
      5,
      null,
      null,
      null,
      null,
      null,
      "IDVARVAL",
      "text",
      1,
      null,
      "IDVARVAL",
      null,
      "COM.IDVARVAL",
      "Identifying Variable Value",
      null,
      null,
      "Assigned",
      "Sponsor"
    ],
    [
      "IG.SUPPDM",
      "IT.SUPPDM.QNAM",
      6,
      "Yes",
      6,
      null,
      null,
      null,
      null,
      null,
      "QNAM",
      "text",
      8,
      null,
      "QNAM",
      null,
      null,
      "Qualifier Variable Name",
      null,
      null,
      "Assigned",
      "Sponsor"
    ],
    [
      "IG.SUPPDM",
      "IT.SUPPDM.QLABEL",
      7,
      "Yes",
      null,
      null,
      null,
      null,
      null,
      null,
      "QLABEL",
      "text",
      26,
      null,
      "QLABEL",
      null,
      null,
      "Qualifier Variable Label",
      null,
      null,
      "Assigned",
      "Sponsor"
    ],
    [
      "IG.SUPPDM",
      "IT.SUPPDM.QVAL",
      8,
      "Yes",
      null,
      null,
      null,
      null,
      null,
      null,
      "QVAL",
      "text",
      200,
      null,
      "QVAL",
      null,
      null,
      "Data Value",
      null,
      "VL.SUPPDM.QVAL",
      null,
      null
    ],
    [
      "IG.SUPPDM",
      "IT.SUPPDM.QORIG",
      9,
      "Yes",
      null,
      null,
      null,
      null,
      null,
      null,
      "QORIG",
      "text",
      11,
      null,
      "QORIG",
      null,
      null,
      "Origin",
      null,
      null,
      "Assigned",
      "Sponsor"
    ],
    [
      "IG.SUPPDM",
      "IT.SUPPDM.QEVAL",
      10,
      "No",
      null,
      null,
      null,
      null,
      null,
      null,
      "QEVAL",
      "text",
      30,
      null,
      "QEVAL",
      null,
      null,
      "Evaluator",
      null,
      null,
      "Assigned",
      "Sponsor"
    ],
    [
      "IG.SUPPVS",
      "IT.STUDYID",
      1,
      "Yes",
      1,
      null,
      null,
      null,
      null,
      null,
      "STUDYID",
      "text",
      7,
      null,
      "STUDYID",
      null,
      null,
      "Study Identifier",
      null,
      null,
      "Protocol",
      "Sponsor"
    ],
    [
      "IG.SUPPVS",
      "IT.RDOMAIN",
      2,
      "Yes",
      2,
      "MT.RDOMAIN",
      null,
      null,
      null,
      null,
      "RDOMAIN",
      "text",
      2,
      null,
      "RDOMAIN",
      null,
      null,
      "Related Domain Abbreviation",
      null,
      null,
      "Derived",
      "Sponsor"
    ],
    [
      "IG.SUPPVS",
      "IT.USUBJID",
      3,
      "Yes",
      3,
      "MT.USUBJID",
      null,
      null,
      null,
      null,
      "USUBJID",
      "text",
      14,
      null,
      "USUBJID",
      null,
      null,
      "Unique Subject Identifier",
      null,
      null,
      "Derived",
      "Sponsor"
    ],
    [
      "IG.SUPPVS",
      "IT.SUPPVS.IDVAR",
      4,
      "No",
      4,
      null,
      null,
      null,
      null,
      null,
      "IDVAR",
      "text",
      5,
      null,
      "IDVAR",
      null,
      "COM.IDVAR",
      "Identifying Variable",
      null,
      null,
      "Assigned",
      "Sponsor"
    ],
    [
      "IG.SUPPVS",
      "IT.SUPPVS.IDVARVAL",
      5,
      "No",
      5,
      null,
      null,
      null,
      null,
      null,
      "IDVARVAL",
      "text",
      2,
      null,
      "IDVARVAL",
      null,
      "COM.IDVARVAL",
      "Identifying Variable Value",
      null,
      null,
      "Assigned",
      "Sponsor"
    ],
    [
      "IG.SUPPVS",
      "IT.SUPPVS.QNAM",
      6,
      "Yes",
      6,
      null,
      null,
      null,
      null,
      null,
      "QNAM",
      "text",
      7,
      null,
      "QNAM",
      null,
      null,
      "Qualifier Variable Name",
      null,
      null,
      "Assigned",
      "Sponsor"
    ],
    [
      "IG.SUPPVS",
      "IT.SUPPVS.QLABEL",
      7,
      "Yes",
      null,
      null,
      null,
      null,
      null,
      null,
      "QLABEL",
      "text",
      36,
      null,
      "QLABEL",
      null,
      null,
      "Qualifier Variable Label",
      null,
      null,
      "Assigned",
      "Sponsor"
    ],
    [
      "IG.SUPPVS",
      "IT.SUPPVS.QVAL",
      8,
      "Yes",
      null,
      null,
      null,
      null,
      null,
      null,
      "QVAL",
      "text",
      2,
      null,
      "QVAL",
      null,
      null,
      "Data Value",
      null,
      "VL.SUPPVS.QVAL",
      null,
      null
    ],
    [
      "IG.SUPPVS",
      "IT.SUPPVS.QORIG",
      9,
      "Yes",
      null,
      null,
      null,
      null,
      null,
      null,
      "QORIG",
      "text",
      7,
      null,
      "QORIG",
      null,
      null,
      "Origin",
      null,
      null,
      "Assigned",
      "Sponsor"
    ],
    [
      "IG.SUPPVS",
      "IT.SUPPVS.QEVAL",
      10,
      "No",
      null,
      null,
      null,
      null,
      null,
      null,
      "QEVAL",
      "text",
      30,
      null,
      "QEVAL",
      null,
      null,
      "Evaluator",
      null,
      null,
      "Assigned",
      "Sponsor"
    ]
  ]
}